trials.thisRepN,trials.thisTrialN,trials.thisN,trials.thisIndex,num_distr,fixation.started,target.started,mouse.started,mouse.x,mouse.y,mouse.leftButton,mouse.midButton,mouse.rightButton,mouse.time,mouse.clicked_name,participant,session,date,expName,psychopyVersion,frameRate
0,0,0,0,5,9.2388189,9.2388189,0.0171625,[-0.3194444444444444],[0.39861111111111114],[1],[0],[0],[2.8478806999046355],['target'],744198,1,2023-09-28_22h15.25.652,visual_search_experiment,2023.1.3,60.07723532
1,0,1,0,10,12.0921383,12.0921383,0.0238936,[0.4888888888888889],[0.4638888888888889],[1],[0],[0],[2.8769176999339834],['target'],744198,1,2023-09-28_22h15.25.652,visual_search_experiment,2023.1.3,60.07723532
2,0,2,0,10,14.9948301,14.9948301,0.0228729,[-0.14583333333333334],[-0.1597222222222222],[1],[0],[0],[2.890127000049688],['target'],744198,1,2023-09-28_22h15.25.652,visual_search_experiment,2023.1.3,60.07723532
3,0,3,0,5,17.9050088,17.9050088,0.0116814,[0.37916666666666665],[-0.31805555555555554],[1],[0],[0],[2.536427399958484],['target'],744198,1,2023-09-28_22h15.25.652,visual_search_experiment,2023.1.3,60.07723532
4,0,4,0,10,20.4631466,20.4631466,0.0228639,[-0.015277777777777777],[-0.1875],[1],[0],[0],[2.606496399967],['target'],744198,1,2023-09-28_22h15.25.652,visual_search_experiment,2023.1.3,60.07723532
5,0,5,0,5,23.088088,23.088088,0.0106758,[0.15416666666666667],[0.35138888888888886],[1],[0],[0],[2.17148839996662],['target'],744198,1,2023-09-28_22h15.25.652,visual_search_experiment,2023.1.3,60.07723532
6,0,6,0,10,25.2772979,25.2772979,0.022982,[-0.1597222222222222],[-0.2388888888888889],[1],[0],[0],[2.657978900009766],['target'],744198,1,2023-09-28_22h15.25.652,visual_search_experiment,2023.1.3,60.07723532
7,0,7,0,10,27.9632693,27.9632693,0.0245018,[0.4013888888888889],[-0.4152777777777778],[1],[0],[0],[3.1708800999913365],['target'],744198,1,2023-09-28_22h15.25.652,visual_search_experiment,2023.1.3,60.07723532
8,0,8,0,10,31.1582754,31.1582754,0.022161,[0.225],[0.4444444444444444],[1],[0],[0],[2.478114499943331],['target'],744198,1,2023-09-28_22h15.25.652,visual_search_experiment,2023.1.3,60.07723532
9,0,9,0,5,33.6548679,33.6548679,0.0119939,[-0.27361111111111114],[0.48194444444444445],[1],[0],[0],[3.267800400033593],[],744198,1,2023-09-28_22h15.25.652,visual_search_experiment,2023.1.3,60.07723532
10,0,10,0,5,36.93771,36.93771,0.0129648,[-0.1388888888888889],[0.40694444444444444],[1],[0],[0],[2.1676131000276655],['target'],744198,1,2023-09-28_22h15.25.652,visual_search_experiment,2023.1.3,60.07723532
11,0,11,0,10,39.1276504,39.1276504,0.0217589,[0.3486111111111111],[-0.175],[1],[0],[0],[2.208689899998717],['target'],744198,1,2023-09-28_22h15.25.652,visual_search_experiment,2023.1.3,60.07723532
12,0,12,0,10,41.361015,41.361015,0.0219268,[0.4847222222222222],[-0.39166666666666666],[1],[0],[0],[2.0254989999812096],['target'],744198,1,2023-09-28_22h15.25.652,visual_search_experiment,2023.1.3,60.07723532
13,0,13,0,5,43.4047732,43.4047732,0.01197,[-0.12222222222222222],[0.2],[1],[0],[0],[2.2354473000159487],['target'],744198,1,2023-09-28_22h15.25.652,visual_search_experiment,2023.1.3,60.07723532
14,0,14,0,5,45.6545957,45.6545957,0.0115869,[-0.14722222222222223],[-0.39305555555555555],[1],[0],[0],[2.536464300006628],['target'],744198,1,2023-09-28_22h15.25.652,visual_search_experiment,2023.1.3,60.07723532
15,0,15,0,5,48.2042005,48.2042005,0.0125214,[-0.075],[-0.39166666666666666],[1],[0],[0],[1.9697710000909865],['target'],744198,1,2023-09-28_22h15.25.652,visual_search_experiment,2023.1.3,60.07723532
16,0,16,0,10,50.1950716,50.1950716,0.0217881,[-0.4013888888888889],[0.18472222222222223],[1],[0],[0],[2.4911814000224695],['target'],744198,1,2023-09-28_22h15.25.652,visual_search_experiment,2023.1.3,60.07723532
17,0,17,0,5,52.703935,52.703935,0.0116386,[-0.28194444444444444],[0.2791666666666667],[1],[0],[0],[1.3837208999320865],['target'],744198,1,2023-09-28_22h15.25.652,visual_search_experiment,2023.1.3,60.07723532
18,0,18,0,10,54.1084554,54.1084554,0.0214527,[0.4222222222222222],[-0.4041666666666667],[1],[0],[0],[3.294865599949844],['target'],744198,1,2023-09-28_22h15.25.652,visual_search_experiment,2023.1.3,60.07723532
19,0,19,0,5,57.4207739,57.4207739,0.0130243,[-0.35555555555555557],[0.1],[1],[0],[0],[1.9684035000391304],['target'],744198,1,2023-09-28_22h15.25.652,visual_search_experiment,2023.1.3,60.07723532
20,0,20,0,10,59.4074446,59.4074446,0.019346,[-0.19722222222222222],[0.1527777777777778],[1],[0],[0],[1.576364399981685],['target'],744198,1,2023-09-28_22h15.25.652,visual_search_experiment,2023.1.3,60.07723532
21,0,21,0,10,61.0105421,61.0105421,0.0222155,[0.24027777777777778],[-0.4097222222222222],[1],[0],[0],[2.092855100054294],['target'],744198,1,2023-09-28_22h15.25.652,visual_search_experiment,2023.1.3,60.07723532
22,0,22,0,5,63.1206868,63.1206868,0.0114368,[0.42083333333333334],[-0.4222222222222222],[1],[0],[0],[2.368614799925126],['target'],744198,1,2023-09-28_22h15.25.652,visual_search_experiment,2023.1.3,60.07723532
23,0,23,0,5,65.5042417,65.5042417,0.0121872,[-0.3125],[-0.2],[1],[0],[0],[2.384970200015232],['target'],744198,1,2023-09-28_22h15.25.652,visual_search_experiment,2023.1.3,60.07723532
24,0,24,0,10,67.910713,67.910713,0.0223177,[0.19583333333333333],[0.46805555555555556],[1],[0],[0],[4.440805300022475],['target'],744198,1,2023-09-28_22h15.25.652,visual_search_experiment,2023.1.3,60.07723532
25,0,25,0,10,72.3734217,72.3734217,0.0212068,[-0.2152777777777778],[0.35694444444444445],[1],[0],[0],[2.059738399926573],['target'],744198,1,2023-09-28_22h15.25.652,visual_search_experiment,2023.1.3,60.07723532
26,0,26,0,5,74.4542908,74.4542908,0.0119118,[0.46944444444444444],[0.4486111111111111],[1],[0],[0],[2.9856049999361858],['target'],744198,1,2023-09-28_22h15.25.652,visual_search_experiment,2023.1.3,60.07723532
27,0,27,0,10,77.4589528,77.4589528,0.0219793,[-0.26805555555555555],[0.2152777777777778],[1],[0],[0],[2.8596478999825194],['target'],744198,1,2023-09-28_22h15.25.652,visual_search_experiment,2023.1.3,60.07723532
28,0,28,0,5,80.3366843,80.3366843,0.0116324,[0.4152777777777778],[0.2708333333333333],[1],[0],[0],[2.0693397000432014],['target'],744198,1,2023-09-28_22h15.25.652,visual_search_experiment,2023.1.3,60.07723532
29,0,29,0,10,82.4269071,82.4269071,0.020625,[-0.1],[-0.12083333333333333],[1],[0],[0],[2.0926942999940366],['target'],744198,1,2023-09-28_22h15.25.652,visual_search_experiment,2023.1.3,60.07723532
30,0,30,0,10,84.5407829,84.5407829,0.0205342,[-0.14583333333333334],[0.2875],[1],[0],[0],[2.208561799954623],['target'],744198,1,2023-09-28_22h15.25.652,visual_search_experiment,2023.1.3,60.07723532
31,0,31,0,10,86.7746631,86.7746631,0.0218994,[0.09583333333333334],[-0.2152777777777778],[1],[0],[0],[2.0093716999981552],['target'],744198,1,2023-09-28_22h15.25.652,visual_search_experiment,2023.1.3,60.07723532
32,0,32,0,5,88.8036809,88.8036809,0.0130555,[0.325],[0.3902777777777778],[1],[0],[0],[1.9521202999167144],['target'],744198,1,2023-09-28_22h15.25.652,visual_search_experiment,2023.1.3,60.07723532
33,0,33,0,5,90.7705485,90.7705485,0.0117906,[-0.12361111111111112],[0.18055555555555555],[1],[0],[0],[2.1515769000397995],['target'],744198,1,2023-09-28_22h15.25.652,visual_search_experiment,2023.1.3,60.07723532
34,0,34,0,10,92.9412263,92.9412263,0.0210161,[0.18472222222222223],[0.009722222222222222],[1],[0],[0],[2.8432457000017166],['target'],744198,1,2023-09-28_22h15.25.652,visual_search_experiment,2023.1.3,60.07723532
35,0,35,0,5,95.8034475,95.8034475,0.0117528,[0.2847222222222222],[0.4722222222222222],[1],[0],[0],[2.7185128000564873],['target'],744198,1,2023-09-28_22h15.25.652,visual_search_experiment,2023.1.3,60.07723532
36,0,36,0,10,98.5412469,98.5412469,0.0218835,[0.3375],[0.2625],[1],[0],[0],[1.8910244000144303],['target'],744198,1,2023-09-28_22h15.25.652,visual_search_experiment,2023.1.3,60.07723532
37,0,37,0,10,100.4567035,100.4567035,0.0214154,[-0.3111111111111111],[-0.3125],[1],[0],[0],[3.294368000002578],['target'],744198,1,2023-09-28_22h15.25.652,visual_search_experiment,2023.1.3,60.07723532
38,0,38,0,10,103.7754732,103.7754732,0.0205439,[-0.33611111111111114],[0.23055555555555557],[1],[0],[0],[2.1409267000854015],['target'],744198,1,2023-09-28_22h15.25.652,visual_search_experiment,2023.1.3,60.07723532
39,0,39,0,5,105.9365589,105.9365589,0.0116746,[-0.05555555555555555],[0.4222222222222222],[1],[0],[0],[2.271131799905561],['target'],744198,1,2023-09-28_22h15.25.652,visual_search_experiment,2023.1.3,60.07723532
40,0,40,0,5,108.2197606,108.2197606,0.0118962,[-0.0375],[0.24583333333333332],[1],[0],[0],[2.2535028000129387],['target'],744198,1,2023-09-28_22h15.25.652,visual_search_experiment,2023.1.3,60.07723532
41,0,41,0,10,110.4935932,110.4935932,0.0210663,[-0.06388888888888888],[-0.37916666666666665],[1],[0],[0],[2.5248926000203937],['target'],744198,1,2023-09-28_22h15.25.652,visual_search_experiment,2023.1.3,60.07723532
42,0,42,0,10,113.0418646,113.0418646,0.021776,[-0.13194444444444445],[-0.19583333333333333],[1],[0],[0],[1.92559210001491],['target'],744198,1,2023-09-28_22h15.25.652,visual_search_experiment,2023.1.3,60.07723532
43,0,43,0,10,114.993975,114.993975,0.0239693,[-0.40694444444444444],[-0.008333333333333333],[1],[0],[0],[1.9073591999476776],['target'],744198,1,2023-09-28_22h15.25.652,visual_search_experiment,2023.1.3,60.07723532
44,0,44,0,5,116.9193802,116.9193802,0.0136196,[-0.1375],[-0.25555555555555554],[1],[0],[0],[2.3169191000051796],['target'],744198,1,2023-09-28_22h15.25.652,visual_search_experiment,2023.1.3,60.07723532
45,0,45,0,5,119.2530288,119.2530288,0.0119334,[-0.013888888888888888],[-0.33611111111111114],[1],[0],[0],[1.7352178000146523],['target'],744198,1,2023-09-28_22h15.25.652,visual_search_experiment,2023.1.3,60.07723532
46,0,46,0,5,121.0030777,121.0030777,0.0116904,[0.3347222222222222],[-0.3763888888888889],[1],[0],[0],[2.351590899983421],['target'],744198,1,2023-09-28_22h15.25.652,visual_search_experiment,2023.1.3,60.07723532
47,0,47,0,5,123.369791,123.369791,0.0110509,[0.3902777777777778],[0.2722222222222222],[1],[0],[0],[2.670181900030002],['target'],744198,1,2023-09-28_22h15.25.652,visual_search_experiment,2023.1.3,60.07723532
48,0,48,0,5,126.0529756,126.0529756,0.0112759,[-0.25],[0.3388888888888889],[1],[0],[0],[2.3508940000319853],['target'],744198,1,2023-09-28_22h15.25.652,visual_search_experiment,2023.1.3,60.07723532
49,0,49,0,5,128.419537,128.419537,0.0116693,[0.1736111111111111],[0.48194444444444445],[1],[0],[0],[3.302518400014378],['target'],744198,1,2023-09-28_22h15.25.652,visual_search_experiment,2023.1.3,60.07723532
50,0,50,0,5,131.7351547,131.7351547,0.0116122,[-0.06388888888888888],[0.07777777777777778],[1],[0],[0],[2.253031100030057],['target'],744198,1,2023-09-28_22h15.25.652,visual_search_experiment,2023.1.3,60.07723532
51,0,51,0,10,134.0082054,134.0082054,0.0226215,[-0.1486111111111111],[-0.425],[1],[0],[0],[3.80826259998139],[],744198,1,2023-09-28_22h15.25.652,visual_search_experiment,2023.1.3,60.07723532
52,0,52,0,5,137.8357385,137.8357385,0.0121136,[-0.23472222222222222],[-0.08472222222222223],[1],[0],[0],[1.6851313000079244],['target'],744198,1,2023-09-28_22h15.25.652,visual_search_experiment,2023.1.3,60.07723532
53,0,53,0,10,139.5420321,139.5420321,0.0230386,[-0.022222222222222223],[0.32083333333333336],[1],[0],[0],[1.9241182000841945],['target'],744198,1,2023-09-28_22h15.25.652,visual_search_experiment,2023.1.3,60.07723532
54,0,54,0,5,141.4856632,141.4856632,0.0119824,[0.4152777777777778],[-0.1763888888888889],[1],[0],[0],[2.0190002999734133],['target'],744198,1,2023-09-28_22h15.25.652,visual_search_experiment,2023.1.3,60.07723532
55,0,55,0,10,143.5247274,143.5247274,0.0224772,[0.04861111111111111],[0.04027777777777778],[1],[0],[0],[1.691544600063935],['target'],744198,1,2023-09-28_22h15.25.652,visual_search_experiment,2023.1.3,60.07723532
56,0,56,0,5,145.2357897,145.2357897,0.0123115,[0.40694444444444444],[0.1736111111111111],[1],[0],[0],[2.801026799948886],['target'],744198,1,2023-09-28_22h15.25.652,visual_search_experiment,2023.1.3,60.07723532
57,0,57,0,5,148.0518704,148.0518704,0.0138477,[-0.47638888888888886],[0.020833333333333332],[1],[0],[0],[2.733958899974823],['target'],744198,1,2023-09-28_22h15.25.652,visual_search_experiment,2023.1.3,60.07723532
58,0,58,0,5,150.8019836,150.8019836,0.0120943,[-0.40694444444444444],[-0.25972222222222224],[1],[0],[0],[1.9846130999503657],['target'],744198,1,2023-09-28_22h15.25.652,visual_search_experiment,2023.1.3,60.07723532
59,0,59,0,10,152.8064488,152.8064488,0.0222975,[0.2388888888888889],[-0.1111111111111111],[1],[0],[0],[2.909122299985029],['target'],744198,1,2023-09-28_22h15.25.652,visual_search_experiment,2023.1.3,60.07723532
60,0,60,0,5,155.7350336,155.7350336,0.0135877,[-0.14027777777777778],[-0.37222222222222223],[1],[0],[0],[3.083502499968745],['target'],744198,1,2023-09-28_22h15.25.652,visual_search_experiment,2023.1.3,60.07723532
61,0,61,0,5,158.8354576,158.8354576,0.0118117,[-0.29583333333333334],[0.23055555555555557],[1],[0],[0],[2.3518432000419125],['target'],744198,1,2023-09-28_22h15.25.652,visual_search_experiment,2023.1.3,60.07723532
62,0,62,0,10,161.2063636,161.2063636,0.0211203,[0.4583333333333333],[0.3736111111111111],[1],[0],[0],[2.7595807999605313],['target'],744198,1,2023-09-28_22h15.25.652,visual_search_experiment,2023.1.3,60.07723532
63,0,63,0,10,163.9893859,163.9893859,0.0217629,[0.1388888888888889],[-0.4152777777777778],[1],[0],[0],[2.108143600053154],['target'],744198,1,2023-09-28_22h15.25.652,visual_search_experiment,2023.1.3,60.07723532
64,0,64,0,5,166.118234,166.118234,0.010949,[0.24583333333333332],[0.3],[1],[0],[0],[2.070169800077565],['target'],744198,1,2023-09-28_22h15.25.652,visual_search_experiment,2023.1.3,60.07723532
65,0,65,0,5,168.2013557,168.2013557,0.0110908,[0.24583333333333332],[0.3],[1],[0],[0],[0.8852746000047773],[],744198,1,2023-09-28_22h15.25.652,visual_search_experiment,2023.1.3,60.07723532
66,0,66,0,5,169.1015645,169.1015645,0.0122056,[0.37777777777777777],[-0.30416666666666664],[1],[0],[0],[2.169584500021301],['target'],744198,1,2023-09-28_22h15.25.652,visual_search_experiment,2023.1.3,60.07723532
67,0,67,0,10,171.2906517,171.2906517,0.0217481,[0.0875],[-0.33055555555555555],[1],[0],[0],[2.8929118000669405],['target'],744198,1,2023-09-28_22h15.25.652,visual_search_experiment,2023.1.3,60.07723532
68,0,68,0,5,174.2016826,174.2016826,0.0127407,[0.20694444444444443],[-0.11388888888888889],[1],[0],[0],[2.550054599996656],[],744198,1,2023-09-28_22h15.25.652,visual_search_experiment,2023.1.3,60.07723532
69,0,69,0,5,176.7678661,176.7678661,0.0117738,[-0.019444444444444445],[-0.19583333333333333],[1],[0],[0],[2.152309700031765],[],744198,1,2023-09-28_22h15.25.652,visual_search_experiment,2023.1.3,60.07723532
70,0,70,0,10,178.9394775,178.9394775,0.0203383,[0.3680555555555556],[0.10694444444444444],[1],[0],[0],[3.009749799966812],['target'],744198,1,2023-09-28_22h15.25.652,visual_search_experiment,2023.1.3,60.07723532
71,0,71,0,10,181.9710433,181.9710433,0.0206631,[-0.3972222222222222],[-0.28888888888888886],[1],[0],[0],[2.560769799980335],['target'],744198,1,2023-09-28_22h15.25.652,visual_search_experiment,2023.1.3,60.07723532
72,0,72,0,5,184.5510751,184.5510751,0.0111204,[-0.28888888888888886],[-0.2222222222222222],[1],[0],[0],[1.7030044000130147],['target'],744198,1,2023-09-28_22h15.25.652,visual_search_experiment,2023.1.3,60.07723532
73,0,73,0,10,186.272574,186.272574,0.0223491,[-0.45694444444444443],[-0.3013888888888889],[1],[0],[0],[1.6250430999789387],['target'],744198,1,2023-09-28_22h15.25.652,visual_search_experiment,2023.1.3,60.07723532
74,0,74,0,10,187.9218901,187.9218901,0.0214116,[0.3236111111111111],[0.48055555555555557],[1],[0],[0],[3.758878199965693],['target'],744198,1,2023-09-28_22h15.25.652,visual_search_experiment,2023.1.3,60.07723532
75,0,75,0,10,191.7059516,191.7059516,0.021208,[-0.4527777777777778],[0.37083333333333335],[1],[0],[0],[3.1607110999757424],['target'],744198,1,2023-09-28_22h15.25.652,visual_search_experiment,2023.1.3,60.07723532
76,0,76,0,5,194.8843434,194.8843434,0.0142964,[0.1763888888888889],[0.3638888888888889],[1],[0],[0],[1.9482681999215856],['target'],744198,1,2023-09-28_22h15.25.652,visual_search_experiment,2023.1.3,60.07723532
77,0,77,0,10,196.8552796,196.8552796,0.0206439,[-0.13472222222222222],[0.32916666666666666],[1],[0],[0],[2.1927230999572203],['target'],744198,1,2023-09-28_22h15.25.652,visual_search_experiment,2023.1.3,60.07723532
78,0,78,0,10,199.0703531,199.0703531,0.0206957,[-0.375],[0.059722222222222225],[1],[0],[0],[3.0099697000114247],['target'],744198,1,2023-09-28_22h15.25.652,visual_search_experiment,2023.1.3,60.07723532
79,0,79,0,5,202.1016336,202.1016336,0.0124244,[-0.05138888888888889],[0.10416666666666667],[1],[0],[0],[1.9021490999730304],['target'],744198,1,2023-09-28_22h15.25.652,visual_search_experiment,2023.1.3,60.07723532
80,0,80,0,5,204.0174339,204.0174339,0.0144169,[-0.33611111111111114],[0.043055555555555555],[1],[0],[0],[1.7660238998942077],['target'],744198,1,2023-09-28_22h15.25.652,visual_search_experiment,2023.1.3,60.07723532
81,0,81,0,5,205.8009308,205.8009308,0.0113822,[-0.3958333333333333],[0.23194444444444445],[1],[0],[0],[1.4689387999242172],['target'],744198,1,2023-09-28_22h15.25.652,visual_search_experiment,2023.1.3,60.07723532
82,0,82,0,5,207.2838652,207.2838652,0.011662,[-0.4736111111111111],[-0.07083333333333333],[1],[0],[0],[1.6206638000439852],['target'],744198,1,2023-09-28_22h15.25.652,visual_search_experiment,2023.1.3,60.07723532
83,0,83,0,5,208.9174033,208.9174033,0.0139572,[-0.48194444444444445],[-0.059722222222222225],[1],[0],[0],[1.69994099996984],['target'],744198,1,2023-09-28_22h15.25.652,visual_search_experiment,2023.1.3,60.07723532
84,0,84,0,5,210.6342429,210.6342429,0.0094278,[0.25972222222222224],[-0.18333333333333332],[1],[0],[0],[1.9037724999943748],['target'],744198,1,2023-09-28_22h15.25.652,visual_search_experiment,2023.1.3,60.07723532
85,0,85,0,5,212.5505806,212.5505806,0.0113961,[0.29583333333333334],[-0.4097222222222222],[1],[0],[0],[1.6688129999674857],['target'],744198,1,2023-09-28_22h15.25.652,visual_search_experiment,2023.1.3,60.07723532
86,0,86,0,10,214.2391962,214.2391962,0.0228355,[0.5],[0.2791666666666667],[1],[0],[0],[2.3411134999478236],['target'],744198,1,2023-09-28_22h15.25.652,visual_search_experiment,2023.1.3,60.07723532
87,0,87,0,5,216.6004471,216.6004471,0.0122822,[-0.1875],[-0.3402777777777778],[1],[0],[0],[1.984790499904193],['target'],744198,1,2023-09-28_22h15.25.652,visual_search_experiment,2023.1.3,60.07723532
88,0,88,0,10,218.6057414,218.6057414,0.0211733,[-0.25833333333333336],[-0.18333333333333332],[1],[0],[0],[2.292574700084515],['target'],744198,1,2023-09-28_22h15.25.652,visual_search_experiment,2023.1.3,60.07723532
89,0,89,0,10,220.923855,220.923855,0.0211249,[0.03194444444444444],[-0.12638888888888888],[1],[0],[0],[2.7089750999584794],['target'],744198,1,2023-09-28_22h15.25.652,visual_search_experiment,2023.1.3,60.07723532
90,0,90,0,5,223.6503605,223.6503605,0.0118916,[-0.3375],[-0.2652777777777778],[1],[0],[0],[1.9194896999979392],['target'],744198,1,2023-09-28_22h15.25.652,visual_search_experiment,2023.1.3,60.07723532
91,0,91,0,10,225.5885188,225.5885188,0.0213196,[-0.4930555555555556],[0.4083333333333333],[1],[0],[0],[2.5423233000328764],['target'],744198,1,2023-09-28_22h15.25.652,visual_search_experiment,2023.1.3,60.07723532
92,0,92,0,10,228.1560617,228.1560617,0.0216334,[0.14305555555555555],[-0.23472222222222222],[1],[0],[0],[1.8921592999249697],['target'],744198,1,2023-09-28_22h15.25.652,visual_search_experiment,2023.1.3,60.07723532
93,0,93,0,5,230.0671652,230.0671652,0.0118804,[0.4652777777777778],[0.4638888888888889],[1],[0],[0],[2.2364887000294402],['target'],744198,1,2023-09-28_22h15.25.652,visual_search_experiment,2023.1.3,60.07723532
94,0,94,0,10,232.3206391,232.3206391,0.0204236,[0.4888888888888889],[-0.22361111111111112],[1],[0],[0],[2.1936958000296727],['target'],744198,1,2023-09-28_22h15.25.652,visual_search_experiment,2023.1.3,60.07723532
95,0,95,0,10,234.5387711,234.5387711,0.0208825,[-0.1986111111111111],[0.006944444444444444],[1],[0],[0],[2.0421691000228748],['target'],744198,1,2023-09-28_22h15.25.652,visual_search_experiment,2023.1.3,60.07723532
96,0,96,0,5,236.6000306,236.6000306,0.0121262,[0.3875],[-0.3236111111111111],[1],[0],[0],[2.4361142999259755],['target'],744198,1,2023-09-28_22h15.25.652,visual_search_experiment,2023.1.3,60.07723532
97,0,97,0,5,239.0503572,239.0503572,0.0121042,[0.125],[-0.38472222222222224],[1],[0],[0],[1.769040699931793],['target'],744198,1,2023-09-28_22h15.25.652,visual_search_experiment,2023.1.3,60.07723532
98,0,98,0,10,240.8393232,240.8393232,0.0217017,[0.25833333333333336],[-0.23472222222222222],[1],[0],[0],[2.1086470000445843],['target'],744198,1,2023-09-28_22h15.25.652,visual_search_experiment,2023.1.3,60.07723532
99,0,99,0,10,242.9714323,242.9714323,0.0205666,[0.2652777777777778],[-0.3625],[1],[0],[0],[2.1097366000758484],['target'],744198,1,2023-09-28_22h15.25.652,visual_search_experiment,2023.1.3,60.07723532
100,0,100,0,10,245.1055791,245.1055791,0.0214955,[-0.4986111111111111],[-0.4013888888888889],[1],[0],[0],[2.391748599940911],['target'],744198,1,2023-09-28_22h15.25.652,visual_search_experiment,2023.1.3,60.07723532
101,0,101,0,5,247.516768,247.516768,0.0107598,[0.4444444444444444],[-0.3263888888888889],[1],[0],[0],[2.1199897999176756],['target'],744198,1,2023-09-28_22h15.25.652,visual_search_experiment,2023.1.3,60.07723532
102,0,102,0,10,249.6548355,249.6548355,0.0213041,[0.4888888888888889],[-0.21805555555555556],[1],[0],[0],[1.8601946000708267],['target'],744198,1,2023-09-28_22h15.25.652,visual_search_experiment,2023.1.3,60.07723532
103,0,103,0,5,251.5333007,251.5333007,0.0125771,[-0.08055555555555556],[0.13055555555555556],[1],[0],[0],[3.1002020000014454],['target'],744198,1,2023-09-28_22h15.25.652,visual_search_experiment,2023.1.3,60.07723532
104,0,104,0,10,254.667133,254.667133,0.0212291,[-0.4388888888888889],[-0.3763888888888889],[1],[0],[0],[2.1429726999485865],['target'],744198,1,2023-09-28_22h15.25.652,visual_search_experiment,2023.1.3,60.07723532
105,0,105,0,5,256.8167454,256.8167454,0.0123811,[-0.08194444444444444],[0.15833333333333333],[1],[0],[0],[1.5859025999670848],['target'],744198,1,2023-09-28_22h15.25.652,visual_search_experiment,2023.1.3,60.07723532
106,0,106,0,10,258.4205809,258.4205809,0.0206109,[0.37222222222222223],[-0.40694444444444444],[1],[0],[0],[4.2266634000698105],[],744198,1,2023-09-28_22h15.25.652,visual_search_experiment,2023.1.3,60.07723532
107,0,107,0,10,262.6724567,262.6724567,0.0212194,[0.24027777777777778],[-0.2847222222222222],[1],[0],[0],[1.6250834999373183],['target'],744198,1,2023-09-28_22h15.25.652,visual_search_experiment,2023.1.3,60.07723532
108,0,108,0,10,264.3167215,264.3167215,0.0181219,[0.3111111111111111],[0.19444444444444445],[1],[0],[0],[1.5457843000767753],['target'],744198,1,2023-09-28_22h15.25.652,visual_search_experiment,2023.1.3,60.07723532
109,0,109,0,5,265.8834871,265.8834871,0.0115239,[0.4305555555555556],[0.24027777777777778],[1],[0],[0],[2.503269499982707],['target'],744198,1,2023-09-28_22h15.25.652,visual_search_experiment,2023.1.3,60.07723532
110,0,110,0,10,268.4125634,268.4125634,0.0217055,[0.2722222222222222],[-0.2972222222222222],[1],[0],[0],[2.107226600055583],['target'],744198,1,2023-09-28_22h15.25.652,visual_search_experiment,2023.1.3,60.07723532
111,0,111,0,10,270.5361203,270.5361203,0.021556,[-0.37916666666666665],[0.029166666666666667],[1],[0],[0],[2.7593579000094905],['target'],744198,1,2023-09-28_22h15.25.652,visual_search_experiment,2023.1.3,60.07723532
112,0,112,0,10,273.320258,273.320258,0.0213492,[-0.44305555555555554],[-0.041666666666666664],[1],[0],[0],[1.893699900014326],['target'],744198,1,2023-09-28_22h15.25.652,visual_search_experiment,2023.1.3,60.07723532
113,0,113,0,10,275.2379585,275.2379585,0.0225739,[0.46805555555555556],[-0.41805555555555557],[1],[0],[0],[3.3741173000307754],['target'],744198,1,2023-09-28_22h15.25.652,visual_search_experiment,2023.1.3,60.07723532
114,0,114,0,5,278.6330896,278.6330896,0.0109976,[-0.06527777777777778],[0.38472222222222224],[1],[0],[0],[2.9531818999676034],['target'],744198,1,2023-09-28_22h15.25.652,visual_search_experiment,2023.1.3,60.07723532
115,0,115,0,10,281.6026354,281.6026354,0.0205683,[-0.22916666666666666],[0.20416666666666666],[1],[0],[0],[2.8760532999876887],['target'],744198,1,2023-09-28_22h15.25.652,visual_search_experiment,2023.1.3,60.07723532
116,0,116,0,10,284.5033056,284.5033056,0.0211287,[-0.16805555555555557],[-0.09027777777777778],[1],[0],[0],[2.422970100073144],['target'],744198,1,2023-09-28_22h15.25.652,visual_search_experiment,2023.1.3,60.07723532
117,0,117,0,5,286.9392724,286.9392724,0.0121801,[-0.4708333333333333],[-0.3972222222222222],[1],[0],[0],[1.5539472999516875],['target'],744198,1,2023-09-28_22h15.25.652,visual_search_experiment,2023.1.3,60.07723532
118,0,118,0,5,288.5159129,288.5159129,0.0108728,[0.07777777777777778],[0.17777777777777778],[1],[0],[0],[2.021664600004442],['target'],744198,1,2023-09-28_22h15.25.652,visual_search_experiment,2023.1.3,60.07723532
119,0,119,0,5,290.5497037,290.5497037,0.012058,[0.004166666666666667],[-0.2513888888888889],[1],[0],[0],[1.5669392000418156],['target'],744198,1,2023-09-28_22h15.25.652,visual_search_experiment,2023.1.3,60.07723532
120,0,120,0,5,292.1324831,292.1324831,0.0117505,[0.28194444444444444],[-0.4166666666666667],[1],[0],[0],[1.9514141000108793],['target'],744198,1,2023-09-28_22h15.25.652,visual_search_experiment,2023.1.3,60.07723532
121,0,121,0,10,294.0988594,294.0988594,0.0182691,[0.10833333333333334],[0.12361111111111112],[1],[0],[0],[2.3125034000258893],['target'],744198,1,2023-09-28_22h15.25.652,visual_search_experiment,2023.1.3,60.07723532
122,0,122,0,5,296.4325838,296.4325838,0.0101573,[0.11527777777777778],[-0.13194444444444445],[1],[0],[0],[1.9870171999791637],[],744198,1,2023-09-28_22h15.25.652,visual_search_experiment,2023.1.3,60.07723532
123,0,123,0,10,298.4389393,298.4389393,0.0221647,[0.14444444444444443],[0.42916666666666664],[1],[0],[0],[2.1257823000196368],['target'],744198,1,2023-09-28_22h15.25.652,visual_search_experiment,2023.1.3,60.07723532
124,0,124,0,5,300.5825911,300.5825911,0.011807,[0.45416666666666666],[-0.24305555555555555],[1],[0],[0],[2.385139900026843],['target'],744198,1,2023-09-28_22h15.25.652,visual_search_experiment,2023.1.3,60.07723532
125,0,125,0,5,302.9823039,302.9823039,0.0114698,[-0.009722222222222222],[-0.09166666666666666],[1],[0],[0],[2.002184299984947],[],744198,1,2023-09-28_22h15.25.652,visual_search_experiment,2023.1.3,60.07723532
126,0,126,0,10,305.0036329,305.0036329,0.0224305,[-0.49583333333333335],[0.12222222222222222],[1],[0],[0],[2.0075037999777123],['target'],744198,1,2023-09-28_22h15.25.652,visual_search_experiment,2023.1.3,60.07723532
127,0,127,0,5,307.0320416,307.0320416,0.0106889,[-0.3055555555555556],[0.24305555555555555],[1],[0],[0],[1.8869192999554798],['target'],744198,1,2023-09-28_22h15.25.652,visual_search_experiment,2023.1.3,60.07723532
128,0,128,0,5,308.9321964,308.9321964,0.0101545,[0.3194444444444444],[0.2763888888888889],[1],[0],[0],[1.7514378000050783],['target'],744198,1,2023-09-28_22h15.25.652,visual_search_experiment,2023.1.3,60.07723532
129,0,129,0,5,310.6988472,310.6988472,0.010992,[0.32083333333333336],[0.39861111111111114],[1],[0],[0],[1.388706099940464],['target'],744198,1,2023-09-28_22h15.25.652,visual_search_experiment,2023.1.3,60.07723532
130,0,130,0,5,312.0992112,312.0992112,0.0126109,[-0.32083333333333336],[0.2125],[1],[0],[0],[1.8341108000604436],['target'],744198,1,2023-09-28_22h15.25.652,visual_search_experiment,2023.1.3,60.07723532
131,0,131,0,5,313.9487445,313.9487445,0.0108937,[-0.42083333333333334],[0.31527777777777777],[1],[0],[0],[1.620316999964416],['target'],744198,1,2023-09-28_22h15.25.652,visual_search_experiment,2023.1.3,60.07723532
132,0,132,0,10,315.5855486,315.5855486,0.0205893,[-0.025],[0.11527777777777778],[1],[0],[0],[2.01045790000353],['target'],744198,1,2023-09-28_22h15.25.652,visual_search_experiment,2023.1.3,60.07723532
133,0,133,0,10,317.6193966,317.6193966,0.0213256,[-0.3958333333333333],[0.43333333333333335],[1],[0],[0],[1.9423074000515044],['target'],744198,1,2023-09-28_22h15.25.652,visual_search_experiment,2023.1.3,60.07723532
134,0,134,0,5,319.5820735,319.5820735,0.0110075,[0.15416666666666667],[0.0763888888888889],[1],[0],[0],[1.7533701999345794],['target'],744198,1,2023-09-28_22h15.25.652,visual_search_experiment,2023.1.3,60.07723532
135,0,135,0,10,321.3553769,321.3553769,0.0228748,[0.29583333333333334],[-0.3263888888888889],[1],[0],[0],[2.241081300075166],['target'],744198,1,2023-09-28_22h15.25.652,visual_search_experiment,2023.1.3,60.07723532
136,0,136,0,5,323.615561,323.615561,0.0104777,[-0.30416666666666664],[-0.030555555555555555],[1],[0],[0],[2.1535493000410497],['target'],744198,1,2023-09-28_22h15.25.652,visual_search_experiment,2023.1.3,60.07723532
137,0,137,0,10,325.7871945,325.7871945,0.0223675,[-0.4041666666666667],[-0.22916666666666666],[1],[0],[0],[2.2084990999428555],['target'],744198,1,2023-09-28_22h15.25.652,visual_search_experiment,2023.1.3,60.07723532
138,0,138,0,5,328.015131,328.015131,0.0096699,[-0.08472222222222223],[0.35555555555555557],[1],[0],[0],[1.9875592000316828],['target'],744198,1,2023-09-28_22h15.25.652,visual_search_experiment,2023.1.3,60.07723532
139,0,139,0,10,330.0202961,330.0202961,0.0216917,[-0.24861111111111112],[0.33611111111111114],[1],[0],[0],[1.9252621999476105],['target'],744198,1,2023-09-28_22h15.25.652,visual_search_experiment,2023.1.3,60.07723532
140,0,140,0,5,331.964967,331.964967,0.0123383,[0.004166666666666667],[0.23333333333333334],[1],[0],[0],[1.784891700022854],['target'],744198,1,2023-09-28_22h15.25.652,visual_search_experiment,2023.1.3,60.07723532
141,0,141,0,10,333.7689997,333.7689997,0.0208855,[-0.4777777777777778],[-0.42777777777777776],[1],[0],[0],[4.759564899955876],[],744198,1,2023-09-28_22h15.25.652,visual_search_experiment,2023.1.3,60.07723532
142,0,142,0,5,338.5482032,338.5482032,0.0097004,[-0.15],[0.1875],[1],[0],[0],[2.05266120005399],['target'],744198,1,2023-09-28_22h15.25.652,visual_search_experiment,2023.1.3,60.07723532
143,0,143,0,10,340.6195524,340.6195524,0.021534,[0.0375],[-0.39444444444444443],[1],[0],[0],[2.794670299976133],[],744198,1,2023-09-28_22h15.25.652,visual_search_experiment,2023.1.3,60.07723532
144,0,144,0,5,343.4313911,343.4313911,0.011901,[0.18194444444444444],[0.24166666666666667],[1],[0],[0],[1.70081230008509],['target'],744198,1,2023-09-28_22h15.25.652,visual_search_experiment,2023.1.3,60.07723532
145,0,145,0,5,345.1484194,345.1484194,0.011522,[-0.2652777777777778],[-0.4166666666666667],[1],[0],[0],[2.669386300025508],['target'],744198,1,2023-09-28_22h15.25.652,visual_search_experiment,2023.1.3,60.07723532
146,0,146,0,10,347.8363082,347.8363082,0.021543,[0.13055555555555556],[-0.09861111111111111],[1],[0],[0],[3.492649400024675],[],744198,1,2023-09-28_22h15.25.652,visual_search_experiment,2023.1.3,60.07723532
147,0,147,0,5,351.3477795,351.3477795,0.0114669,[0.2388888888888889],[-0.39444444444444443],[1],[0],[0],[2.2028063000179827],['target'],744198,1,2023-09-28_22h15.25.652,visual_search_experiment,2023.1.3,60.07723532
148,0,148,0,5,353.5648452,353.5648452,0.0118313,[0.29305555555555557],[0.4013888888888889],[1],[0],[0],[2.285484499996528],['target'],744198,1,2023-09-28_22h15.25.652,visual_search_experiment,2023.1.3,60.07723532
149,0,149,0,10,355.8684367,355.8684367,0.0208835,[0.11388888888888889],[-0.31527777777777777],[1],[0],[0],[2.693434300017543],['target'],744198,1,2023-09-28_22h15.25.652,visual_search_experiment,2023.1.3,60.07723532
150,0,150,0,10,358.5864083,358.5864083,0.0216361,[0.2652777777777778],[-0.2902777777777778],[1],[0],[0],[2.608998900046572],['target'],744198,1,2023-09-28_22h15.25.652,visual_search_experiment,2023.1.3,60.07723532
151,0,151,0,5,361.2146771,361.2146771,0.0113753,[0.11527777777777778],[-0.2111111111111111],[1],[0],[0],[1.6192515000002459],['target'],744198,1,2023-09-28_22h15.25.652,visual_search_experiment,2023.1.3,60.07723532
152,0,152,0,5,362.8477288,362.8477288,0.0094537,[-0.04027777777777778],[-0.030555555555555555],[1],[0],[0],[1.8713887999765575],['target'],744198,1,2023-09-28_22h15.25.652,visual_search_experiment,2023.1.3,60.07723532
153,0,153,0,5,364.7313021,364.7313021,0.0124167,[0.015277777777777777],[0.05138888888888889],[1],[0],[0],[1.6846331000560895],['target'],744198,1,2023-09-28_22h15.25.652,visual_search_experiment,2023.1.3,60.07723532
154,0,154,0,10,366.4365039,366.4365039,0.022053,[-0.4097222222222222],[0.3819444444444444],[1],[0],[0],[2.843268599943258],['target'],744198,1,2023-09-28_22h15.25.652,visual_search_experiment,2023.1.3,60.07723532
155,0,155,0,5,369.2975971,369.2975971,0.0119525,[-0.27361111111111114],[0.3541666666666667],[1],[0],[0],[2.167568000033498],['target'],744198,1,2023-09-28_22h15.25.652,visual_search_experiment,2023.1.3,60.07723532
156,0,156,0,5,371.4809475,371.4809475,0.0116654,[-0.125],[-0.40694444444444444],[1],[0],[0],[2.318082600017078],['target'],744198,1,2023-09-28_22h15.25.652,visual_search_experiment,2023.1.3,60.07723532
157,0,157,0,10,373.81874,373.81874,0.0214165,[0.3763888888888889],[0.34444444444444444],[1],[0],[0],[2.6102607999928296],['target'],744198,1,2023-09-28_22h15.25.652,visual_search_experiment,2023.1.3,60.07723532
158,0,158,0,10,376.4506855,376.4506855,0.0204904,[0.4777777777777778],[0.44027777777777777],[1],[0],[0],[2.5096355999121442],['target'],744198,1,2023-09-28_22h15.25.652,visual_search_experiment,2023.1.3,60.07723532
159,0,159,0,5,378.980704,378.980704,0.0111232,[-0.3597222222222222],[0.15694444444444444],[1],[0],[0],[2.1864921000087634],['target'],744198,1,2023-09-28_22h15.25.652,visual_search_experiment,2023.1.3,60.07723532
160,0,160,0,10,381.1853658,381.1853658,0.0207813,[-0.2861111111111111],[-0.31527777777777777],[1],[0],[0],[2.526124899974093],['target'],744198,1,2023-09-28_22h15.25.652,visual_search_experiment,2023.1.3,60.07723532
161,0,161,0,10,383.7346502,383.7346502,0.021612,[0.12083333333333333],[-0.28055555555555556],[1],[0],[0],[2.6919427000684664],['target'],744198,1,2023-09-28_22h15.25.652,visual_search_experiment,2023.1.3,60.07723532
162,0,162,0,5,386.4476912,386.4476912,0.0112958,[-0.12916666666666668],[-0.24305555555555555],[1],[0],[0],[1.6529606999829412],['target'],744198,1,2023-09-28_22h15.25.652,visual_search_experiment,2023.1.3,60.07723532
163,0,163,0,5,388.1141001,388.1141001,0.012422,[-0.07777777777777778],[0.2513888888888889],[1],[0],[0],[2.5731881000101566],['target'],744198,1,2023-09-28_22h15.25.652,visual_search_experiment,2023.1.3,60.07723532
164,0,164,0,10,390.7095865,390.7095865,0.0246634,[0.24305555555555555],[0.3333333333333333],[1],[0],[0],[1.5507238999707624],['target'],744198,1,2023-09-28_22h15.25.652,visual_search_experiment,2023.1.3,60.07723532
165,0,165,0,5,392.280314,392.280314,0.012319,[0.30416666666666664],[-0.39861111111111114],[1],[0],[0],[2.385382700012997],['target'],744198,1,2023-09-28_22h15.25.652,visual_search_experiment,2023.1.3,60.07723532
166,0,166,0,10,394.6847084,394.6847084,0.0216961,[-0.2263888888888889],[0.32083333333333336],[1],[0],[0],[2.7279605000512674],['target'],744198,1,2023-09-28_22h15.25.652,visual_search_experiment,2023.1.3,60.07723532
167,0,167,0,5,397.4303942,397.4303942,0.0130773,[-0.07361111111111111],[0.1986111111111111],[1],[0],[0],[1.5833815999794751],['target'],744198,1,2023-09-28_22h15.25.652,visual_search_experiment,2023.1.3,60.07723532
168,0,168,0,5,399.0304049,399.0304049,0.0117248,[-0.11527777777777778],[0.37777777777777777],[1],[0],[0],[1.5510272999526933],['target'],744198,1,2023-09-28_22h15.25.652,visual_search_experiment,2023.1.3,60.07723532
169,0,169,0,10,400.5969931,400.5969931,0.0177546,[-0.29583333333333334],[0.1875],[1],[0],[0],[1.4301880999701098],['target'],744198,1,2023-09-28_22h15.25.652,visual_search_experiment,2023.1.3,60.07723532
170,0,170,0,5,402.047205,402.047205,0.0121746,[0.004166666666666667],[-0.0375],[1],[0],[0],[2.8352501000044867],['target'],744198,1,2023-09-28_22h15.25.652,visual_search_experiment,2023.1.3,60.07723532
171,0,171,0,5,404.8971895,404.8971895,0.0111192,[-0.075],[0.17083333333333334],[1],[0],[0],[1.653464199975133],['target'],744198,1,2023-09-28_22h15.25.652,visual_search_experiment,2023.1.3,60.07723532
172,0,172,0,10,406.5707907,406.5707907,0.0215285,[-0.35138888888888886],[0.4222222222222222],[1],[0],[0],[2.3583269000519067],['target'],744198,1,2023-09-28_22h15.25.652,visual_search_experiment,2023.1.3,60.07723532
173,0,173,0,10,408.950857,408.950857,0.0212489,[0.29305555555555557],[-0.4166666666666667],[1],[0],[0],[3.4766704000066966],[],744198,1,2023-09-28_22h15.25.652,visual_search_experiment,2023.1.3,60.07723532
174,0,174,0,5,412.4468416,412.4468416,0.0115998,[-0.25972222222222224],[0.1986111111111111],[1],[0],[0],[2.001762400032021],['target'],744198,1,2023-09-28_22h15.25.652,visual_search_experiment,2023.1.3,60.07723532
175,0,175,0,5,414.4640785,414.4640785,0.0116015,[0.1361111111111111],[-0.42777777777777776],[1],[0],[0],[4.153242499916814],['target'],744198,1,2023-09-28_22h15.25.652,visual_search_experiment,2023.1.3,60.07723532
176,0,176,0,5,418.6299987,418.6299987,0.0119197,[-0.15416666666666667],[0.25972222222222224],[1],[0],[0],[2.7015920999692753],['target'],744198,1,2023-09-28_22h15.25.652,visual_search_experiment,2023.1.3,60.07723532
177,0,177,0,10,421.350164,421.350164,0.0209916,[0.015277777777777777],[0.3625],[1],[0],[0],[1.62592520006001],['target'],744198,1,2023-09-28_22h15.25.652,visual_search_experiment,2023.1.3,60.07723532
178,0,178,0,10,423.0013708,423.0013708,0.0216711,[-0.29305555555555557],[0.23194444444444445],[1],[0],[0],[2.1264803999802098],['target'],744198,1,2023-09-28_22h15.25.652,visual_search_experiment,2023.1.3,60.07723532
179,0,179,0,5,425.1470122,425.1470122,0.0114915,[0.2986111111111111],[-0.42083333333333334],[1],[0],[0],[3.436627299990505],[],744198,1,2023-09-28_22h15.25.652,visual_search_experiment,2023.1.3,60.07723532
180,0,180,0,5,428.5965371,428.5965371,0.0115295,[0.02638888888888889],[-0.2569444444444444],[1],[0],[0],[1.7016846999758855],['target'],744198,1,2023-09-28_22h15.25.652,visual_search_experiment,2023.1.3,60.07723532
181,0,181,0,5,430.3135347,430.3135347,0.0110145,[0.011111111111111112],[0.36666666666666664],[1],[0],[0],[1.7692750999704003],['target'],744198,1,2023-09-28_22h15.25.652,visual_search_experiment,2023.1.3,60.07723532
182,0,182,0,5,432.0971175,432.0971175,0.0118873,[-0.15694444444444444],[-0.08472222222222223],[1],[0],[0],[1.8189883000450209],['target'],744198,1,2023-09-28_22h15.25.652,visual_search_experiment,2023.1.3,60.07723532
183,0,183,0,5,433.9297439,433.9297439,0.0118294,[0.42083333333333334],[-0.2708333333333333],[1],[0],[0],[2.6846586000174284],['target'],744198,1,2023-09-28_22h15.25.652,visual_search_experiment,2023.1.3,60.07723532
184,0,184,0,5,436.6300223,436.6300223,0.0115232,[0.2902777777777778],[0.09027777777777778],[1],[0],[0],[1.6365511999465525],['target'],744198,1,2023-09-28_22h15.25.652,visual_search_experiment,2023.1.3,60.07723532
185,0,185,0,10,438.2894835,438.2894835,0.0254829,[0.013888888888888888],[0.13194444444444445],[1],[0],[0],[1.6556530999951065],['target'],744198,1,2023-09-28_22h15.25.652,visual_search_experiment,2023.1.3,60.07723532
186,0,186,0,5,439.9631559,439.9631559,0.0110865,[-0.03333333333333333],[-0.06527777777777778],[1],[0],[0],[2.15212350001093],['target'],744198,1,2023-09-28_22h15.25.652,visual_search_experiment,2023.1.3,60.07723532
187,0,187,0,10,442.1333052,442.1333052,0.0201394,[-0.03194444444444444],[0.12361111111111112],[1],[0],[0],[3.294185600010678],[],744198,1,2023-09-28_22h15.25.652,visual_search_experiment,2023.1.3,60.07723532
188,0,188,0,5,445.4462728,445.4462728,0.011792,[0.4013888888888889],[0.42777777777777776],[1],[0],[0],[2.0686400999547914],['target'],744198,1,2023-09-28_22h15.25.652,visual_search_experiment,2023.1.3,60.07723532
189,0,189,0,5,447.5297024,447.5297024,0.0121183,[0.23194444444444445],[0.029166666666666667],[1],[0],[0],[1.9852467000018805],['target'],744198,1,2023-09-28_22h15.25.652,visual_search_experiment,2023.1.3,60.07723532
190,0,190,0,5,449.529479,449.529479,0.011063,[-0.4013888888888889],[-0.3541666666666667],[1],[0],[0],[2.2866965000284836],['target'],744198,1,2023-09-28_22h15.25.652,visual_search_experiment,2023.1.3,60.07723532
191,0,191,0,5,451.8296916,451.8296916,0.0115493,[0.18472222222222223],[-0.33611111111111114],[1],[0],[0],[1.8188708000816405],['target'],744198,1,2023-09-28_22h15.25.652,visual_search_experiment,2023.1.3,60.07723532
192,0,192,0,5,453.6630602,453.6630602,0.0126124,[-0.16111111111111112],[0.44027777777777777],[1],[0],[0],[2.9515384999103844],['target'],744198,1,2023-09-28_22h15.25.652,visual_search_experiment,2023.1.3,60.07723532
193,0,193,0,10,456.6342277,456.6342277,0.0213417,[-0.015277777777777777],[-0.36666666666666664],[1],[0],[0],[2.275915899896063],['target'],744198,1,2023-09-28_22h15.25.652,visual_search_experiment,2023.1.3,60.07723532
194,0,194,0,10,458.9344419,458.9344419,0.0217456,[-0.08194444444444444],[-0.11388888888888889],[1],[0],[0],[3.1080013000173494],['target'],744198,1,2023-09-28_22h15.25.652,visual_search_experiment,2023.1.3,60.07723532
195,0,195,0,5,462.0631035,462.0631035,0.0113214,[0.016666666666666666],[-0.1625],[1],[0],[0],[1.6860768999904394],['target'],744198,1,2023-09-28_22h15.25.652,visual_search_experiment,2023.1.3,60.07723532
196,0,196,0,5,463.7624128,463.7624128,0.011796,[-0.09583333333333334],[-0.14444444444444443],[1],[0],[0],[1.9029572000727057],['target'],744198,1,2023-09-28_22h15.25.652,visual_search_experiment,2023.1.3,60.07723532
197,0,197,0,10,465.684645,465.684645,0.0212127,[0.35],[-0.33194444444444443],[1],[0],[0],[2.859721999964677],['target'],744198,1,2023-09-28_22h15.25.652,visual_search_experiment,2023.1.3,60.07723532
198,0,198,0,5,468.5625365,468.5625365,0.0125104,[-0.06527777777777778],[0.06111111111111111],[1],[0],[0],[2.016474200063385],['target'],744198,1,2023-09-28_22h15.25.652,visual_search_experiment,2023.1.3,60.07723532
199,0,199,0,5,470.5959381,470.5959381,0.0112113,[0.15833333333333333],[-0.38472222222222224],[1],[0],[0],[1.8871139000402763],['target'],744198,1,2023-09-28_22h15.25.652,visual_search_experiment,2023.1.3,60.07723532
