trials.thisRepN,trials.thisTrialN,trials.thisN,trials.thisIndex,num_distr,fixation.started,target.started,mouse.started,mouse.x,mouse.y,mouse.leftButton,mouse.midButton,mouse.rightButton,mouse.time,mouse.clicked_name,participant,session,date,expName,psychopyVersion,frameRate
0,0,0,0,5,8.1218022,8.1218022,0.0410854,[-0.41944444444444445],[0.175],[1],[0],[0],[1.9863764999900013],['target'],211843,1,2023-09-28_19h30.08.532,visual_search_experiment,2023.1.3,60.11403634
1,0,1,0,10,10.0883355,10.0883355,0.0217395,[0.38055555555555554],[0.18055555555555555],[1],[0],[0],[2.1086321000475436],['target'],211843,1,2023-09-28_19h30.08.532,visual_search_experiment,2023.1.3,60.11403634
2,0,2,0,5,12.2047128,12.2047128,0.0113104,[-0.3819444444444444],[0.25416666666666665],[1],[0],[0],[1.5551437999820337],['target'],211843,1,2023-09-28_19h30.08.532,visual_search_experiment,2023.1.3,60.11403634
3,0,3,0,5,13.7893337,13.7893337,0.0258435,[-0.2375],[0.4625],[1],[0],[0],[2.3317726999521255],['target'],211843,1,2023-09-28_19h30.08.532,visual_search_experiment,2023.1.3,60.11403634
4,0,4,0,10,16.1436933,16.1436933,0.0239834,[0.15416666666666667],[-0.4097222222222222],[1],[0],[0],[2.5417153999442235],['target'],211843,1,2023-09-28_19h30.08.532,visual_search_experiment,2023.1.3,60.11403634
5,0,5,0,5,18.7042278,18.7042278,0.013831,[-0.4777777777777778],[-0.16805555555555557],[1],[0],[0],[2.1161233000457287],['target'],211843,1,2023-09-28_19h30.08.532,visual_search_experiment,2023.1.3,60.11403634
6,0,6,0,5,20.8375665,20.8375665,0.0124313,[-0.24305555555555555],[-0.09583333333333334],[1],[0],[0],[1.3849719999125227],['target'],211843,1,2023-09-28_19h30.08.532,visual_search_experiment,2023.1.3,60.11403634
7,0,7,0,5,22.2374867,22.2374867,0.0127821,[0.4666666666666667],[0.36527777777777776],[1],[0],[0],[2.581605700077489],['target'],211843,1,2023-09-28_19h30.08.532,visual_search_experiment,2023.1.3,60.11403634
8,0,8,0,10,24.8888776,24.8888776,0.0556503,[-0.4722222222222222],[-0.21805555555555556],[1],[0],[0],[2.7875381000339985],['target'],211843,1,2023-09-28_19h30.08.532,visual_search_experiment,2023.1.3,60.11403634
9,0,9,0,10,27.6897277,27.6897277,0.0223059,[-0.030555555555555555],[0.22361111111111112],[1],[0],[0],[2.161973899928853],['target'],211843,1,2023-09-28_19h30.08.532,visual_search_experiment,2023.1.3,60.11403634
10,0,10,0,5,29.8702795,29.8702795,0.0140032,[-0.18194444444444444],[0.25972222222222224],[1],[0],[0],[1.4967385999625549],['target'],211843,1,2023-09-28_19h30.08.532,visual_search_experiment,2023.1.3,60.11403634
11,0,11,0,10,31.4417899,31.4417899,0.0589737,[-0.12222222222222222],[-0.2986111111111111],[1],[0],[0],[1.9179327000165358],['target'],211843,1,2023-09-28_19h30.08.532,visual_search_experiment,2023.1.3,60.11403634
12,0,12,0,5,33.3878535,33.3878535,0.029221,[-0.18055555555555555],[0.09861111111111111],[1],[0],[0],[1.8640828999923542],['target'],211843,1,2023-09-28_19h30.08.532,visual_search_experiment,2023.1.3,60.11403634
13,0,13,0,5,35.2893258,35.2893258,0.0300133,[0.13472222222222222],[0.0875],[1],[0],[0],[2.4474439000478014],[],211843,1,2023-09-28_19h30.08.532,visual_search_experiment,2023.1.3,60.11403634
14,0,14,0,10,37.7924541,37.7924541,0.0531219,[-0.08194444444444444],[0.3680555555555556],[1],[0],[0],[3.3558833999559283],['target'],211843,1,2023-09-28_19h30.08.532,visual_search_experiment,2023.1.3,60.11403634
15,0,15,0,10,41.2219185,41.2219185,0.0562784,[0.14027777777777778],[0.2722222222222222],[1],[0],[0],[1.7205760999349877],['target'],211843,1,2023-09-28_19h30.08.532,visual_search_experiment,2023.1.3,60.11403634
16,0,16,0,5,42.9719734,42.9719734,0.0298874,[-0.2375],[-0.14166666666666666],[1],[0],[0],[2.1347183999605477],['target'],211843,1,2023-09-28_19h30.08.532,visual_search_experiment,2023.1.3,60.11403634
17,0,17,0,5,45.1199883,45.1199883,0.0124613,[-0.4152777777777778],[0.17916666666666667],[1],[0],[0],[1.7636819999897853],['target'],211843,1,2023-09-28_19h30.08.532,visual_search_experiment,2023.1.3,60.11403634
18,0,18,0,10,46.9420349,46.9420349,0.05445,[-0.4222222222222222],[-0.3486111111111111],[1],[0],[0],[1.872689799987711],['target'],211843,1,2023-09-28_19h30.08.532,visual_search_experiment,2023.1.3,60.11403634
19,0,19,0,5,48.8558905,48.8558905,0.030375,[-0.33194444444444443],[0.12361111111111112],[1],[0],[0],[1.8636336999479681],['target'],211843,1,2023-09-28_19h30.08.532,visual_search_experiment,2023.1.3,60.11403634
20,0,20,0,10,50.7791504,50.7791504,0.0551552,[-0.30277777777777776],[-0.3680555555555556],[1],[0],[0],[1.7746094999602064],['target'],211843,1,2023-09-28_19h30.08.532,visual_search_experiment,2023.1.3,60.11403634
21,0,21,0,10,52.578108,52.578108,0.0232275,[-0.06527777777777778],[-0.08194444444444444],[1],[0],[0],[1.6727246000664309],['target'],211843,1,2023-09-28_19h30.08.532,visual_search_experiment,2023.1.3,60.11403634
22,0,22,0,10,54.2760429,54.2760429,0.0217825,[-0.1763888888888889],[0.43472222222222223],[1],[0],[0],[2.1425369000062346],['target'],211843,1,2023-09-28_19h30.08.532,visual_search_experiment,2023.1.3,60.11403634
23,0,23,0,5,56.4368497,56.4368497,0.0118925,[-0.28194444444444444],[-0.3347222222222222],[1],[0],[0],[2.0059001001063734],['target'],211843,1,2023-09-28_19h30.08.532,visual_search_experiment,2023.1.3,60.11403634
24,0,24,0,5,58.4788252,58.4788252,0.0293291,[-0.26805555555555555],[-0.020833333333333332],[1],[0],[0],[1.5790699999779463],['target'],211843,1,2023-09-28_19h30.08.532,visual_search_experiment,2023.1.3,60.11403634
25,0,25,0,5,60.0934963,60.0934963,0.0289887,[0.2625],[0.10138888888888889],[1],[0],[0],[1.892130900057964],['target'],211843,1,2023-09-28_19h30.08.532,visual_search_experiment,2023.1.3,60.11403634
26,0,26,0,5,62.0214408,62.0214408,0.0296639,[-0.3958333333333333],[-0.36527777777777776],[1],[0],[0],[2.183603800018318],['target'],211843,1,2023-09-28_19h30.08.532,visual_search_experiment,2023.1.3,60.11403634
27,0,27,0,10,64.2267083,64.2267083,0.0219715,[-0.1486111111111111],[-0.11388888888888889],[1],[0],[0],[2.4088850000407547],['target'],211843,1,2023-09-28_19h30.08.532,visual_search_experiment,2023.1.3,60.11403634
28,0,28,0,5,66.6534436,66.6534436,0.0118859,[-0.14166666666666666],[-0.1763888888888889],[1],[0],[0],[1.4518895999062806],['target'],211843,1,2023-09-28_19h30.08.532,visual_search_experiment,2023.1.3,60.11403634
29,0,29,0,10,68.126809,68.126809,0.023217,[-0.20833333333333334],[-0.25416666666666665],[1],[0],[0],[1.892966500017792],['target'],211843,1,2023-09-28_19h30.08.532,visual_search_experiment,2023.1.3,60.11403634
30,0,30,0,10,70.045534,70.045534,0.0237568,[0.05],[0.42916666666666664],[1],[0],[0],[3.7060165000148118],['target'],211843,1,2023-09-28_19h30.08.532,visual_search_experiment,2023.1.3,60.11403634
31,0,31,0,10,73.7764341,73.7764341,0.0230904,[0.2972222222222222],[0.11666666666666667],[1],[0],[0],[2.3409254000289366],['target'],211843,1,2023-09-28_19h30.08.532,visual_search_experiment,2023.1.3,60.11403634
32,0,32,0,5,76.1368695,76.1368695,0.011792,[0.04027777777777778],[0.375],[1],[0],[0],[1.8329787999391556],['target'],211843,1,2023-09-28_19h30.08.532,visual_search_experiment,2023.1.3,60.11403634
33,0,33,0,10,78.0223561,78.0223561,0.0505981,[0.13472222222222222],[0.15694444444444444],[1],[0],[0],[1.9919850999722257],['target'],211843,1,2023-09-28_19h30.08.532,visual_search_experiment,2023.1.3,60.11403634
34,0,34,0,10,80.0466756,80.0466756,0.0294342,[0.30833333333333335],[-0.35694444444444445],[1],[0],[0],[2.5512824999168515],['target'],211843,1,2023-09-28_19h30.08.532,visual_search_experiment,2023.1.3,60.11403634
35,0,35,0,10,82.6663117,82.6663117,0.0547951,[-0.1763888888888889],[-0.3972222222222222],[1],[0],[0],[2.9255624000215903],['target'],211843,1,2023-09-28_19h30.08.532,visual_search_experiment,2023.1.3,60.11403634
36,0,36,0,5,85.6031116,85.6031116,0.0120125,[0.3013888888888889],[0.34305555555555556],[1],[0],[0],[2.419236300047487],['target'],211843,1,2023-09-28_19h30.08.532,visual_search_experiment,2023.1.3,60.11403634
37,0,37,0,10,88.0432504,88.0432504,0.0232014,[-0.28888888888888886],[-0.029166666666666667],[1],[0],[0],[3.00403909990564],['target'],211843,1,2023-09-28_19h30.08.532,visual_search_experiment,2023.1.3,60.11403634
38,0,38,0,5,91.0799023,91.0799023,0.0253284,[-0.4],[0.22361111111111112],[1],[0],[0],[2.456251399940811],['target'],211843,1,2023-09-28_19h30.08.532,visual_search_experiment,2023.1.3,60.11403634
39,0,39,0,10,93.590213,93.590213,0.0493048,[-0.08611111111111111],[-0.16666666666666666],[1],[0],[0],[1.9078947000671178],['target'],211843,1,2023-09-28_19h30.08.532,visual_search_experiment,2023.1.3,60.11403634
40,0,40,0,5,95.5375349,95.5375349,0.0294253,[-0.39861111111111114],[0.32916666666666666],[1],[0],[0],[2.500717000104487],['target'],211843,1,2023-09-28_19h30.08.532,visual_search_experiment,2023.1.3,60.11403634
41,0,41,0,5,98.0526048,98.0526048,0.0115452,[-0.46944444444444444],[-0.05416666666666667],[1],[0],[0],[1.5690327999182045],['target'],211843,1,2023-09-28_19h30.08.532,visual_search_experiment,2023.1.3,60.11403634
42,0,42,0,10,99.6411496,99.6411496,0.0222536,[0.35833333333333334],[0.15694444444444444],[1],[0],[0],[2.504953800002113],['target'],211843,1,2023-09-28_19h30.08.532,visual_search_experiment,2023.1.3,60.11403634
43,0,43,0,5,102.1803803,102.1803803,0.0246375,[-0.3333333333333333],[0.4527777777777778],[1],[0],[0],[2.805287899915129],['target'],211843,1,2023-09-28_19h30.08.532,visual_search_experiment,2023.1.3,60.11403634
44,0,44,0,10,105.0096676,105.0096676,0.0254968,[-0.25277777777777777],[0.24583333333333332],[1],[0],[0],[1.8385526000056416],['target'],211843,1,2023-09-28_19h30.08.532,visual_search_experiment,2023.1.3,60.11403634
45,0,45,0,10,106.8742134,106.8742134,0.0232782,[-0.019444444444444445],[0.36944444444444446],[1],[0],[0],[2.5579166000243276],['target'],211843,1,2023-09-28_19h30.08.532,visual_search_experiment,2023.1.3,60.11403634
46,0,46,0,10,109.4537851,109.4537851,0.0192755,[-0.027777777777777776],[0.2152777777777778],[1],[0],[0],[1.5618856000946835],['target'],211843,1,2023-09-28_19h30.08.532,visual_search_experiment,2023.1.3,60.11403634
47,0,47,0,10,111.0420295,111.0420295,0.0229417,[0.14722222222222223],[0.12916666666666668],[1],[0],[0],[1.8417586999712512],['target'],211843,1,2023-09-28_19h30.08.532,visual_search_experiment,2023.1.3,60.11403634
48,0,48,0,5,112.9025814,112.9025814,0.0121122,[-0.45694444444444443],[-0.3111111111111111],[1],[0],[0],[2.300852600019425],['target'],211843,1,2023-09-28_19h30.08.532,visual_search_experiment,2023.1.3,60.11403634
49,0,49,0,10,115.2250206,115.2250206,0.0221753,[-0.1361111111111111],[0.09305555555555556],[1],[0],[0],[2.5421915999613702],['target'],211843,1,2023-09-28_19h30.08.532,visual_search_experiment,2023.1.3,60.11403634
50,0,50,0,10,117.8002505,117.8002505,0.0258434,[-0.2222222222222222],[-0.06805555555555555],[1],[0],[0],[2.3836072999984026],['target'],211843,1,2023-09-28_19h30.08.532,visual_search_experiment,2023.1.3,60.11403634
51,0,51,0,5,120.2024703,120.2024703,0.011104,[-0.36944444444444446],[0.16527777777777777],[1],[0],[0],[2.0041230999631807],['target'],211843,1,2023-09-28_19h30.08.532,visual_search_experiment,2023.1.3,60.11403634
52,0,52,0,10,122.2251434,122.2251434,0.0234086,[0.14305555555555555],[-0.4097222222222222],[1],[0],[0],[4.122926100040786],['target'],211843,1,2023-09-28_19h30.08.532,visual_search_experiment,2023.1.3,60.11403634
53,0,53,0,5,126.3698078,126.3698078,0.0125813,[0.32916666666666666],[0.26805555555555555],[1],[0],[0],[2.549228999996558],['target'],211843,1,2023-09-28_19h30.08.532,visual_search_experiment,2023.1.3,60.11403634
54,0,54,0,5,128.953729,128.953729,0.030229,[-0.29583333333333334],[-0.2361111111111111],[1],[0],[0],[2.1972489999607205],['target'],211843,1,2023-09-28_19h30.08.532,visual_search_experiment,2023.1.3,60.11403634
55,0,55,0,5,131.1866495,131.1866495,0.028996,[0.09027777777777778],[0.12083333333333333],[1],[0],[0],[2.164619200048037],['target'],211843,1,2023-09-28_19h30.08.532,visual_search_experiment,2023.1.3,60.11403634
56,0,56,0,10,133.4214978,133.4214978,0.0560316,[0.3111111111111111],[0.3138888888888889],[1],[0],[0],[2.4197618999751285],['target'],211843,1,2023-09-28_19h30.08.532,visual_search_experiment,2023.1.3,60.11403634
57,0,57,0,5,135.8587779,135.8587779,0.025705,[0.4305555555555556],[-0.4013888888888889],[1],[0],[0],[2.151480000000447],['target'],211843,1,2023-09-28_19h30.08.532,visual_search_experiment,2023.1.3,60.11403634
58,0,58,0,10,138.0603331,138.0603331,0.0391367,[-0.3902777777777778],[-0.20694444444444443],[1],[0],[0],[4.188869599951431],['target'],211843,1,2023-09-28_19h30.08.532,visual_search_experiment,2023.1.3,60.11403634
59,0,59,0,10,142.2727823,142.2727823,0.0223464,[0.2652777777777778],[0.19583333333333333],[1],[0],[0],[2.2734822999918833],['target'],211843,1,2023-09-28_19h30.08.532,visual_search_experiment,2023.1.3,60.11403634
60,0,60,0,5,144.580749,144.580749,0.0244901,[0.30833333333333335],[-0.16805555555555557],[1],[0],[0],[1.6396218999288976],['target'],211843,1,2023-09-28_19h30.08.532,visual_search_experiment,2023.1.3,60.11403634
61,0,61,0,10,146.2751814,146.2751814,0.0508141,[-0.07777777777777778],[0.2513888888888889],[1],[0],[0],[3.059808099991642],['target'],211843,1,2023-09-28_19h30.08.532,visual_search_experiment,2023.1.3,60.11403634
62,0,62,0,10,149.3583401,149.3583401,0.0219187,[0.22361111111111112],[0.4305555555555556],[1],[0],[0],[2.0726120000472292],['target'],211843,1,2023-09-28_19h30.08.532,visual_search_experiment,2023.1.3,60.11403634
63,0,63,0,10,151.4898837,151.4898837,0.0530458,[-0.3736111111111111],[0.25],[1],[0],[0],[2.676518800086342],['target'],211843,1,2023-09-28_19h30.08.532,visual_search_experiment,2023.1.3,60.11403634
64,0,64,0,10,154.191419,154.191419,0.0217774,[-0.12083333333333333],[-0.2125],[1],[0],[0],[2.342331700026989],['target'],211843,1,2023-09-28_19h30.08.532,visual_search_experiment,2023.1.3,60.11403634
65,0,65,0,10,156.5575219,156.5575219,0.0217816,[0.04861111111111111],[-0.058333333333333334],[1],[0],[0],[2.7394313000841066],['target'],211843,1,2023-09-28_19h30.08.532,visual_search_experiment,2023.1.3,60.11403634
66,0,66,0,5,159.3297882,159.3297882,0.0260317,[0.3347222222222222],[0.029166666666666667],[1],[0],[0],[1.9719598999945447],['target'],211843,1,2023-09-28_19h30.08.532,visual_search_experiment,2023.1.3,60.11403634
67,0,67,0,10,161.325553,161.325553,0.0229243,[0.34444444444444444],[0.1763888888888889],[1],[0],[0],[1.6061127000721171],['target'],211843,1,2023-09-28_19h30.08.532,visual_search_experiment,2023.1.3,60.11403634
68,0,68,0,5,162.9509615,162.9509615,0.0128405,[0.30694444444444446],[-0.016666666666666666],[1],[0],[0],[1.7664079000242054],['target'],211843,1,2023-09-28_19h30.08.532,visual_search_experiment,2023.1.3,60.11403634
69,0,69,0,5,164.744279,164.744279,0.0246453,[-0.18333333333333332],[-0.38472222222222224],[1],[0],[0],[2.486302900011651],['target'],211843,1,2023-09-28_19h30.08.532,visual_search_experiment,2023.1.3,60.11403634
70,0,70,0,10,167.2792556,167.2792556,0.0418597,[0.38472222222222224],[-0.3958333333333333],[1],[0],[0],[2.5839236000319943],['target'],211843,1,2023-09-28_19h30.08.532,visual_search_experiment,2023.1.3,60.11403634
71,0,71,0,10,169.9163847,169.9163847,0.0466255,[0.18472222222222223],[-0.0125],[1],[0],[0],[5.966937299934216],[],211843,1,2023-09-28_19h30.08.532,visual_search_experiment,2023.1.3,60.11403634
72,0,72,0,10,175.9059585,175.9059585,0.0213804,[-0.09027777777777778],[0.1875],[1],[0],[0],[2.2424939000047743],['target'],211843,1,2023-09-28_19h30.08.532,visual_search_experiment,2023.1.3,60.11403634
73,0,73,0,5,178.1676622,178.1676622,0.0123948,[0.42916666666666664],[-0.12638888888888888],[1],[0],[0],[1.8347525000572205],['target'],211843,1,2023-09-28_19h30.08.532,visual_search_experiment,2023.1.3,60.11403634
74,0,74,0,10,180.0224296,180.0224296,0.0225908,[-0.3236111111111111],[-0.36666666666666664],[1],[0],[0],[3.375399800017476],['target'],211843,1,2023-09-28_19h30.08.532,visual_search_experiment,2023.1.3,60.11403634
75,0,75,0,10,183.4193357,183.4193357,0.0191543,[0.041666666666666664],[0.35833333333333334],[1],[0],[0],[3.3778865000931546],['target'],211843,1,2023-09-28_19h30.08.532,visual_search_experiment,2023.1.3,60.11403634
76,0,76,0,5,186.8178035,186.8178035,0.0125817,[0.08888888888888889],[0.48194444444444445],[1],[0],[0],[3.1350948000326753],['target'],211843,1,2023-09-28_19h30.08.532,visual_search_experiment,2023.1.3,60.11403634
77,0,77,0,10,189.9737301,189.9737301,0.0236313,[0.1361111111111111],[-0.2902777777777778],[1],[0],[0],[4.340334800072014],['target'],211843,1,2023-09-28_19h30.08.532,visual_search_experiment,2023.1.3,60.11403634
78,0,78,0,5,194.3343019,194.3343019,0.0099702,[-0.029166666666666667],[0.2916666666666667],[1],[0],[0],[2.651417799992487],['target'],211843,1,2023-09-28_19h30.08.532,visual_search_experiment,2023.1.3,60.11403634
79,0,79,0,5,197.0122516,197.0122516,0.0249394,[0.3638888888888889],[-0.32083333333333336],[1],[0],[0],[1.7575208999915048],['target'],211843,1,2023-09-28_19h30.08.532,visual_search_experiment,2023.1.3,60.11403634
80,0,80,0,10,198.8100941,198.8100941,0.0354414,[0.22083333333333333],[-0.059722222222222225],[1],[0],[0],[1.9727294000331312],['target'],211843,1,2023-09-28_19h30.08.532,visual_search_experiment,2023.1.3,60.11403634
81,0,81,0,5,200.8004061,200.8004061,0.0121528,[0.49583333333333335],[0.25416666666666665],[1],[0],[0],[2.118309500045143],['target'],211843,1,2023-09-28_19h30.08.532,visual_search_experiment,2023.1.3,60.11403634
82,0,82,0,10,202.939122,202.939122,0.0222799,[0.09305555555555556],[-0.15555555555555556],[1],[0],[0],[2.638938899966888],['target'],211843,1,2023-09-28_19h30.08.532,visual_search_experiment,2023.1.3,60.11403634
83,0,83,0,5,205.6003121,205.6003121,0.0106173,[-0.42777777777777776],[0.4777777777777778],[1],[0],[0],[2.641266699996777],['target'],211843,1,2023-09-28_19h30.08.532,visual_search_experiment,2023.1.3,60.11403634
84,0,84,0,10,208.255894,208.255894,0.0222383,[0.1375],[0.42083333333333334],[1],[0],[0],[2.624649600009434],['target'],211843,1,2023-09-28_19h30.08.532,visual_search_experiment,2023.1.3,60.11403634
85,0,85,0,10,210.9054349,210.9054349,0.0217514,[0.23472222222222222],[0.06805555555555555],[1],[0],[0],[1.905675399932079],['target'],211843,1,2023-09-28_19h30.08.532,visual_search_experiment,2023.1.3,60.11403634
86,0,86,0,10,212.8674465,212.8674465,0.0468636,[0.39444444444444443],[0.36666666666666664],[1],[0],[0],[2.7512598000466824],['target'],211843,1,2023-09-28_19h30.08.532,visual_search_experiment,2023.1.3,60.11403634
87,0,87,0,10,215.6396143,215.6396143,0.022303,[-0.24861111111111112],[0.05694444444444444],[1],[0],[0],[6.907456999993883],['target'],211843,1,2023-09-28_19h30.08.532,visual_search_experiment,2023.1.3,60.11403634
88,0,88,0,10,222.5803505,222.5803505,0.0307365,[-0.2763888888888889],[0.08194444444444444],[1],[0],[0],[2.453222200041637],['target'],211843,1,2023-09-28_19h30.08.532,visual_search_experiment,2023.1.3,60.11403634
89,0,89,0,10,225.0629972,225.0629972,0.0253744,[-0.05555555555555555],[0.25416666666666665],[1],[0],[0],[2.919893200043589],['target'],211843,1,2023-09-28_19h30.08.532,visual_search_experiment,2023.1.3,60.11403634
90,0,90,0,10,228.0065749,228.0065749,0.0223685,[-0.06944444444444445],[0.2569444444444444],[1],[0],[0],[1.4087306000292301],['target'],211843,1,2023-09-28_19h30.08.532,visual_search_experiment,2023.1.3,60.11403634
91,0,91,0,5,229.4334204,229.4334204,0.0129384,[-0.4986111111111111],[-0.3819444444444444],[1],[0],[0],[2.401202000095509],['target'],211843,1,2023-09-28_19h30.08.532,visual_search_experiment,2023.1.3,60.11403634
92,0,92,0,5,231.850045,231.850045,0.0124003,[0.025],[-0.27361111111111114],[1],[0],[0],[1.9974519000388682],['target'],211843,1,2023-09-28_19h30.08.532,visual_search_experiment,2023.1.3,60.11403634
93,0,93,0,5,233.8668901,233.8668901,0.0107861,[-0.42916666666666664],[0.2513888888888889],[1],[0],[0],[2.857638799934648],['target'],211843,1,2023-09-28_19h30.08.532,visual_search_experiment,2023.1.3,60.11403634
94,0,94,0,5,236.7330009,236.7330009,0.0122483,[0.10972222222222222],[-0.03611111111111111],[1],[0],[0],[2.8815524000674486],['target'],211843,1,2023-09-28_19h30.08.532,visual_search_experiment,2023.1.3,60.11403634
95,0,95,0,5,239.6503216,239.6503216,0.0290275,[-0.39166666666666666],[-0.38472222222222224],[1],[0],[0],[3.4673314000247046],['target'],211843,1,2023-09-28_19h30.08.532,visual_search_experiment,2023.1.3,60.11403634
96,0,96,0,10,243.1390283,243.1390283,0.0229758,[-0.4097222222222222],[0.018055555555555554],[1],[0],[0],[9.35596469999291],['target'],211843,1,2023-09-28_19h30.08.532,visual_search_experiment,2023.1.3,60.11403634
97,0,97,0,10,252.5441206,252.5441206,0.0403342,[-0.16527777777777777],[-0.14583333333333334],[1],[0],[0],[1.6891506999963894],['target'],211843,1,2023-09-28_19h30.08.532,visual_search_experiment,2023.1.3,60.11403634
98,0,98,0,5,254.2497073,254.2497073,0.012591,[0.44583333333333336],[-0.17916666666666667],[1],[0],[0],[2.3001427000854164],['target'],211843,1,2023-09-28_19h30.08.532,visual_search_experiment,2023.1.3,60.11403634
99,0,99,0,10,256.5819127,256.5819127,0.0329078,[0.3861111111111111],[0.025],[1],[0],[0],[2.512163099949248],['target'],211843,1,2023-09-28_19h30.08.532,visual_search_experiment,2023.1.3,60.11403634
100,0,100,0,10,259.1660646,259.1660646,0.0540423,[-0.0125],[0.4013888888888889],[1],[0],[0],[2.1890461000148207],['target'],211843,1,2023-09-28_19h30.08.532,visual_search_experiment,2023.1.3,60.11403634
101,0,101,0,10,261.4167712,261.4167712,0.0553345,[-0.3875],[0.42083333333333334],[1],[0],[0],[1.989016899955459],['target'],211843,1,2023-09-28_19h30.08.532,visual_search_experiment,2023.1.3,60.11403634
102,0,102,0,10,263.4640982,263.4640982,0.052919,[0.34444444444444444],[-0.044444444444444446],[1],[0],[0],[2.2903572999639437],['target'],211843,1,2023-09-28_19h30.08.532,visual_search_experiment,2023.1.3,60.11403634
103,0,103,0,10,265.8165284,265.8165284,0.0547855,[-0.125],[0.07222222222222222],[1],[0],[0],[1.9386521999258548],['target'],211843,1,2023-09-28_19h30.08.532,visual_search_experiment,2023.1.3,60.11403634
104,0,104,0,10,267.8034421,267.8034421,0.0516496,[0.10694444444444444],[0.34305555555555556],[1],[0],[0],[3.179138600011356],['target'],211843,1,2023-09-28_19h30.08.532,visual_search_experiment,2023.1.3,60.11403634
105,0,105,0,5,270.9993337,270.9993337,0.0114537,[0.1875],[-0.07916666666666666],[1],[0],[0],[2.5181897999718785],['target'],211843,1,2023-09-28_19h30.08.532,visual_search_experiment,2023.1.3,60.11403634
106,0,106,0,10,273.536436,273.536436,0.0212633,[0.2708333333333333],[-0.04027777777777778],[1],[0],[0],[3.6108537000836805],[],211843,1,2023-09-28_19h30.08.532,visual_search_experiment,2023.1.3,60.11403634
107,0,107,0,10,277.1709125,277.1709125,0.0216104,[-0.19583333333333333],[-0.33194444444444443],[1],[0],[0],[2.5052248999709263],['target'],211843,1,2023-09-28_19h30.08.532,visual_search_experiment,2023.1.3,60.11403634
108,0,108,0,10,279.735396,279.735396,0.0447257,[0.13333333333333333],[0.09861111111111111],[1],[0],[0],[1.7695892999181524],['target'],211843,1,2023-09-28_19h30.08.532,visual_search_experiment,2023.1.3,60.11403634
109,0,109,0,10,281.5189328,281.5189328,0.0211433,[0.2902777777777778],[-0.1375],[1],[0],[0],[2.0264801000012085],['target'],211843,1,2023-09-28_19h30.08.532,visual_search_experiment,2023.1.3,60.11403634
110,0,110,0,10,283.5713879,283.5713879,0.0234793,[0.16805555555555557],[-0.06805555555555555],[1],[0],[0],[3.274970799917355],[],211843,1,2023-09-28_19h30.08.532,visual_search_experiment,2023.1.3,60.11403634
111,0,111,0,5,286.865883,286.865883,0.0117754,[0.2833333333333333],[-0.4152777777777778],[1],[0],[0],[3.0849515999434516],[],211843,1,2023-09-28_19h30.08.532,visual_search_experiment,2023.1.3,60.11403634
112,0,112,0,10,289.9699878,289.9699878,0.0207936,[-0.3458333333333333],[-0.05138888888888889],[1],[0],[0],[2.692640500026755],['target'],211843,1,2023-09-28_19h30.08.532,visual_search_experiment,2023.1.3,60.11403634
113,0,113,0,5,292.6818827,292.6818827,0.0115591,[-0.31527777777777777],[0.4111111111111111],[1],[0],[0],[2.419865599949844],['target'],211843,1,2023-09-28_19h30.08.532,visual_search_experiment,2023.1.3,60.11403634
114,0,114,0,5,295.1153524,295.1153524,0.0123519,[0.11805555555555555],[0.38333333333333336],[1],[0],[0],[2.43235740007367],['target'],211843,1,2023-09-28_19h30.08.532,visual_search_experiment,2023.1.3,60.11403634
115,0,115,0,5,297.5818997,297.5818997,0.0285041,[0.12222222222222222],[-0.04861111111111111],[1],[0],[0],[1.6651480000000447],['target'],211843,1,2023-09-28_19h30.08.532,visual_search_experiment,2023.1.3,60.11403634
116,0,116,0,5,299.2702215,299.2702215,0.0235542,[0.29305555555555557],[-0.1875],[1],[0],[0],[1.6697975000133738],['target'],211843,1,2023-09-28_19h30.08.532,visual_search_experiment,2023.1.3,60.11403634
117,0,117,0,5,300.9822844,300.9822844,0.0281932,[-0.09305555555555556],[0.24166666666666667],[1],[0],[0],[2.4841526999371126],['target'],211843,1,2023-09-28_19h30.08.532,visual_search_experiment,2023.1.3,60.11403634
118,0,118,0,5,303.4822146,303.4822146,0.0112207,[-0.25972222222222224],[0.3486111111111111],[1],[0],[0],[1.987103300052695],['target'],211843,1,2023-09-28_19h30.08.532,visual_search_experiment,2023.1.3,60.11403634
119,0,119,0,5,305.4818165,305.4818165,0.0113743,[-0.059722222222222225],[-0.18333333333333332],[1],[0],[0],[2.13512589992024],['target'],211843,1,2023-09-28_19h30.08.532,visual_search_experiment,2023.1.3,60.11403634
120,0,120,0,5,307.6319758,307.6319758,0.0109704,[-0.015277777777777777],[-0.31527777777777777],[1],[0],[0],[3.700666199903935],[],211843,1,2023-09-28_19h30.08.532,visual_search_experiment,2023.1.3,60.11403634
121,0,121,0,10,311.3686631,311.3686631,0.0255264,[-0.24861111111111112],[0.1736111111111111],[1],[0],[0],[5.887756999931298],['target'],211843,1,2023-09-28_19h30.08.532,visual_search_experiment,2023.1.3,60.11403634
122,0,122,0,5,317.2649459,317.2649459,0.010968,[-0.06666666666666667],[-0.34305555555555556],[1],[0],[0],[2.037810800014995],['target'],211843,1,2023-09-28_19h30.08.532,visual_search_experiment,2023.1.3,60.11403634
123,0,123,0,5,319.3148895,319.3148895,0.0113207,[-0.1638888888888889],[0.37777777777777777],[1],[0],[0],[3.485556299914606],['target'],211843,1,2023-09-28_19h30.08.532,visual_search_experiment,2023.1.3,60.11403634
124,0,124,0,10,322.8213483,322.8213483,0.0208925,[0.32222222222222224],[0.41805555555555557],[1],[0],[0],[2.4725398999871686],['target'],211843,1,2023-09-28_19h30.08.532,visual_search_experiment,2023.1.3,60.11403634
125,0,125,0,5,325.3317384,325.3317384,0.0295916,[-0.07777777777777778],[-0.4222222222222222],[1],[0],[0],[2.7831489000236616],['target'],211843,1,2023-09-28_19h30.08.532,visual_search_experiment,2023.1.3,60.11403634
126,0,126,0,10,328.1350113,328.1350113,0.0220643,[0.12083333333333333],[-0.31805555555555554],[1],[0],[0],[1.9410288000945002],['target'],211843,1,2023-09-28_19h30.08.532,visual_search_experiment,2023.1.3,60.11403634
127,0,127,0,10,330.1395797,330.1395797,0.0553148,[-0.35],[-0.1125],[1],[0],[0],[2.1376052999403328],['target'],211843,1,2023-09-28_19h30.08.532,visual_search_experiment,2023.1.3,60.11403634
128,0,128,0,5,332.3157211,332.3157211,0.0287365,[-0.2875],[-0.0125],[1],[0],[0],[1.6641387999989092],['target'],211843,1,2023-09-28_19h30.08.532,visual_search_experiment,2023.1.3,60.11403634
129,0,129,0,10,334.0473336,334.0473336,0.0532566,[0.2902777777777778],[-0.1486111111111111],[1],[0],[0],[2.4563283000607044],['target'],211843,1,2023-09-28_19h30.08.532,visual_search_experiment,2023.1.3,60.11403634
130,0,130,0,10,336.5651809,336.5651809,0.0538763,[0.009722222222222222],[-0.41805555555555557],[1],[0],[0],[4.8085958999581635],['target'],211843,1,2023-09-28_19h30.08.532,visual_search_experiment,2023.1.3,60.11403634
131,0,131,0,5,341.3820652,341.3820652,0.0115434,[-0.043055555555555555],[0.2013888888888889],[1],[0],[0],[2.469950099941343],['target'],211843,1,2023-09-28_19h30.08.532,visual_search_experiment,2023.1.3,60.11403634
132,0,132,0,10,343.8823511,343.8823511,0.020841,[0.46944444444444444],[-0.059722222222222225],[1],[0],[0],[2.711665999959223],['target'],211843,1,2023-09-28_19h30.08.532,visual_search_experiment,2023.1.3,60.11403634
133,0,133,0,10,346.6397759,346.6397759,0.0450473,[-0.15],[0.35],[1],[0],[0],[2.447288899915293],['target'],211843,1,2023-09-28_19h30.08.532,visual_search_experiment,2023.1.3,60.11403634
134,0,134,0,5,349.0978399,349.0978399,0.0112424,[-0.28194444444444444],[0.025],[1],[0],[0],[1.9355045999400318],['target'],211843,1,2023-09-28_19h30.08.532,visual_search_experiment,2023.1.3,60.11403634
135,0,135,0,5,351.0474098,351.0474098,0.010983,[-0.31527777777777777],[-0.14027777777777778],[1],[0],[0],[2.236939400085248],['target'],211843,1,2023-09-28_19h30.08.532,visual_search_experiment,2023.1.3,60.11403634
136,0,136,0,5,353.2976921,353.2976921,0.0107301,[-0.425],[0.07083333333333333],[1],[0],[0],[2.670171899953857],['target'],211843,1,2023-09-28_19h30.08.532,visual_search_experiment,2023.1.3,60.11403634
137,0,137,0,5,355.980795,355.980795,0.010793,[0.08333333333333333],[0.05555555555555555],[1],[0],[0],[2.0539253000169992],['target'],211843,1,2023-09-28_19h30.08.532,visual_search_experiment,2023.1.3,60.11403634
138,0,138,0,5,358.0477942,358.0477942,0.0114239,[0.07083333333333333],[0.059722222222222225],[1],[0],[0],[1.5190090000396594],['target'],211843,1,2023-09-28_19h30.08.532,visual_search_experiment,2023.1.3,60.11403634
139,0,139,0,5,359.5809208,359.5809208,0.0108885,[-0.17083333333333334],[0.05138888888888889],[1],[0],[0],[1.7692697000456974],['target'],211843,1,2023-09-28_19h30.08.532,visual_search_experiment,2023.1.3,60.11403634
140,0,140,0,5,361.3642559,361.3642559,0.0106487,[0.4236111111111111],[-0.07083333333333333],[1],[0],[0],[2.1544311000034213],['target'],211843,1,2023-09-28_19h30.08.532,visual_search_experiment,2023.1.3,60.11403634
141,0,141,0,5,363.5309289,363.5309289,0.0108508,[-0.4527777777777778],[-0.2638888888888889],[1],[0],[0],[2.4528634999878705],['target'],211843,1,2023-09-28_19h30.08.532,visual_search_experiment,2023.1.3,60.11403634
142,0,142,0,10,366.0017636,366.0017636,0.0208848,[-0.4361111111111111],[0.08472222222222223],[1],[0],[0],[2.209376999991946],['target'],211843,1,2023-09-28_19h30.08.532,visual_search_experiment,2023.1.3,60.11403634
143,0,143,0,10,368.2340859,368.2340859,0.0213669,[-0.43194444444444446],[-0.2013888888888889],[1],[0],[0],[2.2556561999954283],['target'],211843,1,2023-09-28_19h30.08.532,visual_search_experiment,2023.1.3,60.11403634
144,0,144,0,10,370.5182139,370.5182139,0.0235647,[0.25972222222222224],[-0.19444444444444445],[1],[0],[0],[2.5443735000444576],['target'],211843,1,2023-09-28_19h30.08.532,visual_search_experiment,2023.1.3,60.11403634
145,0,145,0,5,373.0807752,373.0807752,0.0111629,[0.44722222222222224],[-0.2791666666666667],[1],[0],[0],[2.0363986999727786],['target'],211843,1,2023-09-28_19h30.08.532,visual_search_experiment,2023.1.3,60.11403634
146,0,146,0,5,375.1309659,375.1309659,0.0117239,[0.08333333333333333],[0.4041666666666667],[1],[0],[0],[1.8340050000697374],['target'],211843,1,2023-09-28_19h30.08.532,visual_search_experiment,2023.1.3,60.11403634
147,0,147,0,10,377.0254724,377.0254724,0.0523047,[-0.10972222222222222],[0.32083333333333336],[1],[0],[0],[2.360353199997917],['target'],211843,1,2023-09-28_19h30.08.532,visual_search_experiment,2023.1.3,60.11403634
148,0,148,0,10,379.4023618,379.4023618,0.0217848,[-0.018055555555555554],[-0.10833333333333334],[1],[0],[0],[2.091906000045128],['target'],211843,1,2023-09-28_19h30.08.532,visual_search_experiment,2023.1.3,60.11403634
149,0,149,0,10,381.5182226,381.5182226,0.0208023,[0.33055555555555555],[-0.24583333333333332],[1],[0],[0],[1.8091891000512987],['target'],211843,1,2023-09-28_19h30.08.532,visual_search_experiment,2023.1.3,60.11403634
150,0,150,0,5,383.3468881,383.3468881,0.0118965,[0.19027777777777777],[0.4861111111111111],[1],[0],[0],[3.3201135999988765],[],211843,1,2023-09-28_19h30.08.532,visual_search_experiment,2023.1.3,60.11403634
151,0,151,0,10,386.6851742,386.6851742,0.0218252,[0.02361111111111111],[0.3347222222222222],[1],[0],[0],[3.0081785999936983],[],211843,1,2023-09-28_19h30.08.532,visual_search_experiment,2023.1.3,60.11403634
152,0,152,0,5,389.7138763,389.7138763,0.0109338,[0.2861111111111111],[-0.10416666666666667],[1],[0],[0],[1.5034501999616623],['target'],211843,1,2023-09-28_19h30.08.532,visual_search_experiment,2023.1.3,60.11403634
153,0,153,0,10,391.2334566,391.2334566,0.0211316,[-0.18194444444444444],[-0.16666666666666666],[1],[0],[0],[2.1102565999608487],['target'],211843,1,2023-09-28_19h30.08.532,visual_search_experiment,2023.1.3,60.11403634
154,0,154,0,10,393.3682916,393.3682916,0.0222076,[0.004166666666666667],[0.08611111111111111],[1],[0],[0],[3.059497599955648],['target'],211843,1,2023-09-28_19h30.08.532,visual_search_experiment,2023.1.3,60.11403634
155,0,155,0,5,396.4468315,396.4468315,0.0116082,[-0.2569444444444444],[0.09861111111111111],[1],[0],[0],[2.451983599923551],['target'],211843,1,2023-09-28_19h30.08.532,visual_search_experiment,2023.1.3,60.11403634
156,0,156,0,10,398.9185942,398.9185942,0.0216198,[0.3597222222222222],[0.29444444444444445],[1],[0],[0],[2.091582699911669],['target'],211843,1,2023-09-28_19h30.08.532,visual_search_experiment,2023.1.3,60.11403634
157,0,157,0,10,401.0329303,401.0329303,0.0208993,[0.25277777777777777],[0.29583333333333334],[1],[0],[0],[1.8431567000225186],['target'],211843,1,2023-09-28_19h30.08.532,visual_search_experiment,2023.1.3,60.11403634
158,0,158,0,5,402.8971032,402.8971032,0.0108004,[-0.05416666666666667],[-0.30972222222222223],[1],[0],[0],[2.3513892999617383],[],211843,1,2023-09-28_19h30.08.532,visual_search_experiment,2023.1.3,60.11403634
159,0,159,0,5,405.2697104,405.2697104,0.0184114,[-0.09027777777777778],[0.4625],[1],[0],[0],[3.4906756000127643],['target'],211843,1,2023-09-28_19h30.08.532,visual_search_experiment,2023.1.3,60.11403634
160,0,160,0,10,408.831663,408.831663,0.0565078,[-0.32083333333333336],[-0.1986111111111111],[1],[0],[0],[2.2408723999978974],['target'],211843,1,2023-09-28_19h30.08.532,visual_search_experiment,2023.1.3,60.11403634
161,0,161,0,10,411.0851266,411.0851266,0.0214759,[0.07222222222222222],[0.015277777777777777],[1],[0],[0],[3.3913086999673396],['target'],211843,1,2023-09-28_19h30.08.532,visual_search_experiment,2023.1.3,60.11403634
162,0,162,0,10,414.5090054,414.5090054,0.0299406,[-0.45416666666666666],[0.3902777777777778],[1],[0],[0],[2.9025223000207916],['target'],211843,1,2023-09-28_19h30.08.532,visual_search_experiment,2023.1.3,60.11403634
163,0,163,0,10,417.4354488,417.4354488,0.0215033,[-0.11527777777777778],[-0.42777777777777776],[1],[0],[0],[3.2910052000079304],['target'],211843,1,2023-09-28_19h30.08.532,visual_search_experiment,2023.1.3,60.11403634
164,0,164,0,5,420.7465291,420.7465291,0.0126351,[-0.4361111111111111],[0.47638888888888886],[1],[0],[0],[2.419099299935624],['target'],211843,1,2023-09-28_19h30.08.532,visual_search_experiment,2023.1.3,60.11403634
165,0,165,0,5,423.1797297,423.1797297,0.01153,[-0.29583333333333334],[0.2513888888888889],[1],[0],[0],[1.9358319999882951],['target'],211843,1,2023-09-28_19h30.08.532,visual_search_experiment,2023.1.3,60.11403634
166,0,166,0,10,425.132946,425.132946,0.0211743,[-0.07916666666666666],[-0.1625],[1],[0],[0],[2.8932993999915197],['target'],211843,1,2023-09-28_19h30.08.532,visual_search_experiment,2023.1.3,60.11403634
167,0,167,0,10,428.0506093,428.0506093,0.0217658,[-0.04027777777777778],[0.33055555555555555],[1],[0],[0],[2.4419186000013724],['target'],211843,1,2023-09-28_19h30.08.532,visual_search_experiment,2023.1.3,60.11403634
168,0,168,0,10,430.5172392,430.5172392,0.0221284,[-0.05138888888888889],[0.12361111111111112],[1],[0],[0],[2.1252598999999464],['target'],211843,1,2023-09-28_19h30.08.532,visual_search_experiment,2023.1.3,60.11403634
169,0,169,0,5,432.6627652,432.6627652,0.0121643,[-0.46944444444444444],[0.17916666666666667],[1],[0],[0],[1.9523123999824747],['target'],211843,1,2023-09-28_19h30.08.532,visual_search_experiment,2023.1.3,60.11403634
170,0,170,0,5,434.6299129,434.6299129,0.0109671,[0.2986111111111111],[-0.12083333333333333],[1],[0],[0],[2.170019599958323],['target'],211843,1,2023-09-28_19h30.08.532,visual_search_experiment,2023.1.3,60.11403634
171,0,171,0,5,436.8130213,436.8130213,0.0108585,[0.39861111111111114],[-0.034722222222222224],[1],[0],[0],[1.9200049000792205],['target'],211843,1,2023-09-28_19h30.08.532,visual_search_experiment,2023.1.3,60.11403634
172,0,172,0,10,438.7513306,438.7513306,0.0227405,[0.05416666666666667],[0.2722222222222222],[1],[0],[0],[2.5747005000011995],['target'],211843,1,2023-09-28_19h30.08.532,visual_search_experiment,2023.1.3,60.11403634
173,0,173,0,10,441.3508536,441.3508536,0.0218875,[0.001388888888888889],[-0.4111111111111111],[1],[0],[0],[3.3096084999851882],['target'],211843,1,2023-09-28_19h30.08.532,visual_search_experiment,2023.1.3,60.11403634
174,0,174,0,10,444.6992042,444.6992042,0.0349754,[-0.26666666666666666],[-0.26944444444444443],[1],[0],[0],[2.325898200040683],['target'],211843,1,2023-09-28_19h30.08.532,visual_search_experiment,2023.1.3,60.11403634
175,0,175,0,5,447.0637212,447.0637212,0.0290226,[-0.43472222222222223],[-0.3736111111111111],[1],[0],[0],[2.5635038000764325],['target'],211843,1,2023-09-28_19h30.08.532,visual_search_experiment,2023.1.3,60.11403634
176,0,176,0,5,449.6627404,449.6627404,0.0290339,[-0.10555555555555556],[-0.4305555555555556],[1],[0],[0],[3.871023999992758],['target'],211843,1,2023-09-28_19h30.08.532,visual_search_experiment,2023.1.3,60.11403634
177,0,177,0,5,453.5701403,453.5701403,0.029371,[-0.10138888888888889],[-0.175],[1],[0],[0],[1.6635458000237122],['target'],211843,1,2023-09-28_19h30.08.532,visual_search_experiment,2023.1.3,60.11403634
178,0,178,0,10,455.2771609,455.2771609,0.0412308,[0.029166666666666667],[-0.059722222222222225],[1],[0],[0],[2.234843200072646],['target'],211843,1,2023-09-28_19h30.08.532,visual_search_experiment,2023.1.3,60.11403634
179,0,179,0,5,457.5429375,457.5429375,0.0236222,[0.0625],[-0.029166666666666667],[1],[0],[0],[2.2156405999558046],['target'],211843,1,2023-09-28_19h30.08.532,visual_search_experiment,2023.1.3,60.11403634
180,0,180,0,5,459.7936503,459.7936503,0.0293467,[-0.4777777777777778],[-0.4],[1],[0],[0],[2.486168299918063],['target'],211843,1,2023-09-28_19h30.08.532,visual_search_experiment,2023.1.3,60.11403634
181,0,181,0,5,462.3176366,462.3176366,0.0285686,[-0.4736111111111111],[-0.2361111111111111],[1],[0],[0],[1.7301348999608308],['target'],211843,1,2023-09-28_19h30.08.532,visual_search_experiment,2023.1.3,60.11403634
182,0,182,0,5,464.0622981,464.0622981,0.0111178,[0.1388888888888889],[-0.07361111111111111],[1],[0],[0],[2.2661763000069186],['target'],211843,1,2023-09-28_19h30.08.532,visual_search_experiment,2023.1.3,60.11403634
183,0,183,0,10,466.3747159,466.3747159,0.045254,[0.2902777777777778],[-0.03194444444444444],[1],[0],[0],[2.0180557999992743],['target'],211843,1,2023-09-28_19h30.08.532,visual_search_experiment,2023.1.3,60.11403634
184,0,184,0,10,468.4177172,468.4177172,0.02137,[-0.44583333333333336],[0.32083333333333336],[1],[0],[0],[4.376288800034672],['target'],211843,1,2023-09-28_19h30.08.532,visual_search_experiment,2023.1.3,60.11403634
185,0,185,0,5,472.8118917,472.8118917,0.0124118,[0.46805555555555556],[-0.26805555555555555],[1],[0],[0],[2.7013859000289813],['target'],211843,1,2023-09-28_19h30.08.532,visual_search_experiment,2023.1.3,60.11403634
186,0,186,0,10,475.5326192,475.5326192,0.0215048,[-0.03333333333333333],[-0.24305555555555555],[1],[0],[0],[1.7922142000170425],['target'],211843,1,2023-09-28_19h30.08.532,visual_search_experiment,2023.1.3,60.11403634
187,0,187,0,5,477.345699,477.345699,0.011299,[-0.043055555555555555],[-0.22916666666666666],[1],[0],[0],[1.8192794000497088],['target'],211843,1,2023-09-28_19h30.08.532,visual_search_experiment,2023.1.3,60.11403634
188,0,188,0,10,479.1826742,479.1826742,0.021911,[0.11805555555555555],[0.4597222222222222],[1],[0],[0],[3.4596498999744654],[],211843,1,2023-09-28_19h30.08.532,visual_search_experiment,2023.1.3,60.11403634
189,0,189,0,10,482.6669622,482.6669622,0.0224436,[0.08611111111111111],[0.29583333333333334],[1],[0],[0],[2.491964799934067],['target'],211843,1,2023-09-28_19h30.08.532,visual_search_experiment,2023.1.3,60.11403634
190,0,190,0,10,485.1856924,485.1856924,0.0235435,[0.2972222222222222],[0.09861111111111111],[1],[0],[0],[2.972125699976459],['target'],211843,1,2023-09-28_19h30.08.532,visual_search_experiment,2023.1.3,60.11403634
191,0,191,0,10,488.1839109,488.1839109,0.0242304,[0.25],[-0.3333333333333333],[1],[0],[0],[2.241047800052911],['target'],211843,1,2023-09-28_19h30.08.532,visual_search_experiment,2023.1.3,60.11403634
192,0,192,0,5,490.445576,490.445576,0.0123492,[0.29583333333333334],[-0.32916666666666666],[1],[0],[0],[1.5503223999403417],['target'],211843,1,2023-09-28_19h30.08.532,visual_search_experiment,2023.1.3,60.11403634
193,0,193,0,10,492.0148015,492.0148015,0.0219813,[0.2013888888888889],[-0.325],[1],[0],[0],[2.1926856000209227],['target'],211843,1,2023-09-28_19h30.08.532,visual_search_experiment,2023.1.3,60.11403634
194,0,194,0,10,494.2313007,494.2313007,0.0208817,[-0.44166666666666665],[-0.019444444444444445],[1],[0],[0],[2.51205610006582],['target'],211843,1,2023-09-28_19h30.08.532,visual_search_experiment,2023.1.3,60.11403634
195,0,195,0,5,496.761319,496.761319,0.0123375,[0.4777777777777778],[0.2152777777777778],[1],[0],[0],[2.0176630000350997],['target'],211843,1,2023-09-28_19h30.08.532,visual_search_experiment,2023.1.3,60.11403634
196,0,196,0,10,498.799464,498.799464,0.0213099,[-0.15694444444444444],[-0.17222222222222222],[1],[0],[0],[3.108836099971086],['target'],211843,1,2023-09-28_19h30.08.532,visual_search_experiment,2023.1.3,60.11403634
197,0,197,0,5,501.9282723,501.9282723,0.010785,[0.3763888888888889],[0.05555555555555555],[1],[0],[0],[2.2202727999538183],['target'],211843,1,2023-09-28_19h30.08.532,visual_search_experiment,2023.1.3,60.11403634
198,0,198,0,5,504.1614033,504.1614033,0.0111579,[0.47638888888888886],[-0.21944444444444444],[1],[0],[0],[2.2363171000033617],['target'],211843,1,2023-09-28_19h30.08.532,visual_search_experiment,2023.1.3,60.11403634
199,0,199,0,5,506.4113708,506.4113708,0.0114525,[0.30277777777777776],[0.07083333333333333],[1],[0],[0],[1.569568100036122],['target'],211843,1,2023-09-28_19h30.08.532,visual_search_experiment,2023.1.3,60.11403634
